t_ms,euler_x,euler_y,euler_z,gyro_x,gyro_y,gyro_z,accel_x,accel_y,accel_z,linacc_x,linacc_y,linacc_z,mag_x,mag_y,mag_z,grav_x,grav_y,grav_z,temp_c,cal_sys,cal_gyro,cal_accel,cal_mag
6482,331.125,9.562,-90.000,-0.035,0.008,-0.012,2.020,9.610,0.000,0.380,-0.040,0.000,-25.062,4.500,22.500,1.630,9.660,0.000,26,0,0,0,0
6492,331.188,9.562,-90.000,-0.039,-0.021,-0.027,1.880,9.590,0.070,0.240,-0.070,0.080,-25.062,4.500,22.500,1.630,9.660,0.000,26,0,0,0,0
6500,331.188,9.562,-90.000,-0.056,-0.034,-0.029,1.620,9.600,0.030,0.000,-0.060,0.030,-24.875,5.250,24.062,1.630,9.660,0.000,26,0,0,0,0
6507,331.188,9.562,-90.000,-0.040,-0.019,-0.039,1.690,9.640,0.020,0.060,-0.020,0.020,-24.875,5.250,24.062,1.630,9.670,0.000,26,0,0,0,0
6515,331.250,9.562,-89.938,-0.040,-0.019,-0.039,1.870,9.640,-0.180,0.060,-0.020,0.020,-24.875,5.250,24.062,1.620,9.670,0.000,26,0,0,0,0
6524,331.250,9.500,-89.938,-0.017,-0.026,-0.052,1.710,9.600,-0.200,0.240,-0.020,-0.180,-24.875,5.250,24.062,1.620,9.670,0.000,26,0,0,0,0
6534,331.312,9.500,-89.938,0.008,0.001,-0.044,1.630,9.570,-0.040,0.090,-0.060,-0.200,-24.875,5.250,24.062,1.620,9.670,0.000,26,0,0,0,0
6544,331.250,9.500,-90.000,0.034,0.070,-0.019,1.630,9.570,-0.040,0.010,-0.090,-0.040,-24.875,5.250,24.062,1.620,9.670,0.000,26,0,0,0,0
6552,331.188,9.500,-90.000,0.037,0.127,0.005,1.620,9.530,0.160,0.000,-0.130,0.160,-24.875,3.750,23.250,1.620,9.670,0.000,26,0,0,0,0
6560,331.062,9.500,-90.000,0.038,0.160,0.008,1.690,9.530,0.170,0.070,-0.130,0.170,-24.875,3.750,23.250,1.620,9.670,0.000,26,0,0,0,0
6567,331.062,9.500,-90.000,0.048,0.171,-0.005,1.770,9.550,0.120,0.150,-0.110,0.120,-24.875,3.750,23.250,1.620,9.670,0.000,26,0,0,0,0
6576,331.000,9.500,-90.000,0.058,0.176,-0.022,1.770,9.490,0.190,0.150,-0.180,0.190,-24.875,3.750,23.250,1.620,9.670,0.000,26,0,0,0,0
6585,330.875,9.500,-90.000,0.058,0.176,-0.022,1.660,9.430,0.290,0.040,-0.230,0.290,-24.875,3.750,23.250,1.620,9.670,0.000,26,0,0,0,0
6595,330.812,9.500,-90.000,0.050,0.168,-0.040,1.570,9.560,0.270,0.040,-0.230,0.290,-24.875,3.750,23.250,1.610,9.670,0.000,26,0,0,0,0
6603,330.750,9.438,-90.000,0.031,0.175,-0.048,1.570,9.560,0.270,-0.040,-0.110,0.270,-24.750,5.562,22.562,1.610,9.670,0.000,26,0,0,0,0
6610,330.688,9.438,-89.938,0.013,0.176,-0.052,1.580,9.680,0.240,-0.020,0.010,0.240,-24.750,5.562,22.562,1.610,9.670,0.000,26,0,0,0,0
6619,330.562,9.438,-89.938,0.023,0.181,-0.040,1.240,9.720,0.200,-0.350,0.050,0.200,-24.750,5.562,22.562,1.600,9.670,0.000,26,0,0,0,0
6629,330.500,9.375,-90.000,0.055,0.230,-0.025,1.140,9.700,0.260,-0.460,0.030,0.260,-24.750,5.562,22.562,1.600,9.670,0.000,26,0,0,0,0
6640,330.312,9.375,-90.000,0.100,0.312,-0.007,1.030,9.650,0.380,-0.560,-0.010,0.390,-24.750,5.562,22.562,1.600,9.670,0.000,26,0,0,0,0
6647,330.312,9.375,-90.000,0.100,0.312,-0.007,0.900,9.600,0.500,-0.690,-0.060,0.510,-25.688,5.875,22.188,1.600,9.670,-0.010,26,0,0,1,0
6655,330.062,9.375,-90.062,0.122,0.396,0.023,0.730,9.720,0.470,-0.690,-0.060,0.510,-25.688,5.875,22.188,1.610,9.670,-0.010,26,0,0,1,0
6663,329.750,9.438,-90.062,0.144,0.469,0.036,0.730,9.720,0.470,-0.870,0.040,0.490,-25.688,5.875,22.188,1.610,9.670,-0.020,26,0,0,1,0
6672,329.438,9.438,-90.125,0.172,0.539,0.049,0.820,9.730,0.250,-0.840,0.060,0.400,-25.688,5.875,22.188,1.620,9.670,-0.030,26,0,0,1,0
6683,329.062,9.500,-90.188,0.188,0.575,0.071,0.830,9.620,0.150,-0.790,0.060,0.280,-25.688,5.875,22.188,1.630,9.660,-0.040,26,0,0,1,0
6694,328.625,9.562,-90.250,0.206,0.595,0.094,0.830,9.620,0.150,-0.790,-0.030,0.200,-25.688,5.875,22.188,1.630,9.660,-0.040,26,0,0,1,0
6701,328.250,9.625,-90.250,0.205,0.631,0.119,0.820,9.400,0.160,-0.810,-0.260,0.210,-25.375,5.062,22.375,1.640,9.660,-0.050,26,0,0,1,0
6709,328.250,9.625,-90.250,0.191,0.641,0.135,0.900,9.400,0.100,-0.730,-0.250,0.150,-25.375,5.062,22.375,1.630,9.660,-0.050,26,0,0,1,0
6716,327.875,9.562,-90.312,0.191,0.641,0.135,0.940,9.560,0.000,-0.690,-0.100,0.060,-25.375,5.062,22.375,1.630,9.660,-0.050,26,0,0,1,0
6726,327.562,9.562,-90.312,0.178,0.613,0.139,1.130,9.790,-0.020,-0.500,0.120,0.030,-25.375,5.062,22.375,1.630,9.660,-0.060,26,0,0,1,0
6736,327.250,9.562,-90.312,0.172,0.576,0.134,1.190,9.720,-0.010,-0.440,0.050,0.050,-25.375,5.062,22.375,1.640,9.660,-0.070,26,0,0,1,0
6745,326.875,9.625,-90.375,0.169,0.525,0.118,1.340,9.570,0.040,-0.440,0.050,0.050,-25.375,5.062,22.375,1.650,9.660,-0.070,26,0,0,1,0
6753,326.500,9.688,-90.438,0.151,0.489,0.104,1.340,9.570,0.040,-0.300,-0.080,0.120,-27.250,6.188,22.188,1.650,9.660,-0.070,26,0,0,1,0
6761,326.250,9.750,-90.438,0.124,0.419,0.079,1.570,9.530,0.060,-0.090,-0.120,0.140,-27.250,6.188,22.188,1.660,9.660,-0.080,26,0,0,1,0
6771,326.000,9.750,-90.500,0.109,0.332,0.061,1.820,9.650,0.000,0.160,0.000,0.090,-27.250,6.188,22.188,1.660,9.660,-0.080,26,0,0,1,0
6782,325.812,9.812,-90.500,0.106,0.235,0.035,1.840,9.780,0.000,0.170,0.120,0.090,-27.250,6.188,22.188,1.670,9.660,-0.090,26,0,0,1,0
6792,325.750,9.812,-90.562,0.099,0.139,0.010,1.890,9.770,-0.110,0.210,0.110,-0.010,-27.250,6.188,22.188,1.670,9.660,-0.090,26,0,0,1,0
6800,325.750,9.750,-90.625,0.094,0.034,-0.021,1.970,9.710,-0.150,0.300,0.040,-0.040,-28.062,6.750,21.375,1.670,9.660,-0.100,26,0,0,1,0
6807,325.750,9.750,-90.625,0.094,0.034,-0.021,1.890,9.560,-0.240,0.220,-0.100,-0.120,-28.062,6.750,21.375,1.660,9.660,-0.110,26,0,0,1,0
6815,325.812,9.750,-90.688,0.101,-0.055,-0.047,1.910,9.430,-0.330,0.250,-0.230,-0.200,-28.062,6.750,21.375,1.650,9.660,-0.130,26,0,0,1,0
6825,325.875,9.688,-90.750,0.122,-0.151,-0.068,1.960,9.360,-0.350,0.310,-0.300,-0.200,-28.062,6.750,21.375,1.650,9.660,-0.140,26,0,0,1,0
6836,326.062,9.688,-90.875,0.131,-0.263,-0.088,1.990,9.300,-0.330,0.350,-0.350,-0.170,-28.062,6.750,21.375,1.630,9.660,-0.160,26,0,0,1,0
6845,326.312,9.625,-90.938,0.129,-0.367,-0.115,1.990,9.300,-0.330,0.350,-0.350,-0.170,-28.062,6.750,21.375,1.620,9.660,-0.180,26,0,0,1,0
6853,326.688,9.500,-91.062,0.108,-0.454,-0.145,2.110,9.300,-0.350,0.490,-0.360,-0.170,-28.188,6.062,21.375,1.620,9.660,-0.180,26,0,0,1,0
6861,327.062,9.375,-91.125,0.083,-0.541,-0.176,2.360,9.330,-0.400,0.750,-0.330,-0.200,-28.188,6.062,21.375,1.600,9.670,-0.200,26,0,0,1,0
6871,327.500,9.312,-91.250,0.081,-0.637,-0.206,2.570,9.330,-0.420,0.980,-0.330,-0.200,-28.188,6.062,21.375,1.580,9.670,-0.210,26,0,0,1,0
6882,328.062,9.125,-91.375,0.082,-0.723,-0.235,2.710,9.280,-0.320,1.150,-0.380,-0.080,-28.188,6.062,21.375,1.530,9.680,-0.250,26,0,0,1,0
6892,328.625,9.000,-91.500,0.086,-0.807,-0.255,2.840,9.340,-0.350,1.310,-0.330,-0.090,-28.188,6.062,21.375,1.530,9.680,-0.250,26,0,0,1,0
6900,329.250,8.812,-91.625,0.094,-0.872,-0.263,3.090,9.330,-0.320,1.580,-0.350,-0.040,-28.250,4.562,22.562,1.510,9.680,-0.270,26,0,0,1,0
6907,329.250,8.812,-91.625,0.094,-0.872,-0.263,2.890,9.510,-0.330,1.410,-0.170,-0.030,-28.250,4.562,22.562,1.480,9.680,-0.300,26,0,0,1,0
6915,329.938,8.688,-91.750,0.094,-0.913,-0.264,2.800,9.550,-0.340,1.350,-0.130,-0.020,-28.250,4.562,22.562,1.450,9.690,-0.320,26,0,0,1,0
6925,330.625,8.500,-91.875,0.091,-0.959,-0.272,2.670,9.540,-0.300,1.240,-0.150,0.040,-28.250,4.562,22.562,1.420,9.690,-0.340,26,0,0,1,0
6936,331.312,8.312,-92.000,0.079,-0.969,-0.277,2.670,9.540,-0.220,1.270,-0.150,0.130,-28.250,4.562,22.562,1.390,9.690,-0.360,26,0,0,1,0
6946,332.000,8.125,-92.125,0.061,-0.924,-0.279,2.590,9.620,-0.040,1.270,-0.150,0.130,-28.250,4.562,22.562,1.400,9.690,-0.370,26,0,0,1,0
6953,332.375,8.188,-92.188,0.039,-0.878,-0.268,2.590,9.620,-0.040,1.180,-0.060,0.320,-26.375,6.375,23.750,1.400,9.690,-0.370,26,0,0,1,0
6961,333.000,8.062,-92.250,0.029,-0.821,-0.264,2.450,9.740,0.070,1.070,0.030,0.450,-26.375,6.375,23.750,1.370,9.700,-0.380,26,0,0,1,0
6970,333.562,7.875,-92.312,0.024,-0.774,-0.241,2.270,9.750,0.080,0.920,0.050,0.480,-26.375,6.375,23.750,1.350,9.700,-0.390,26,0,0,1,0
6980,334.125,7.750,-92.375,0.024,-0.711,-0.214,2.260,9.620,0.100,0.930,-0.070,0.510,-26.375,6.375,23.750,1.320,9.700,-0.400,26,0,0,1,0
6991,334.562,7.625,-92.438,0.007,-0.635,-0.196,2.120,9.620,0.110,0.810,-0.080,0.520,-26.375,6.375,23.750,1.300,9.710,-0.410,26,0,0,1,0
6998,334.562,7.625,-92.438,0.007,-0.635,-0.196,1.960,9.690,0.080,0.670,-0.010,0.500,-24.562,3.750,25.500,1.280,9.710,-0.420,26,0,0,1,0
7006,335.000,7.500,-92.438,-0.012,-0.561,-0.176,1.800,9.750,0.080,0.670,-0.010,0.500,-24.562,3.750,25.500,1.270,9.710,-0.420,26,0,0,1,0
7014,335.375,7.438,-92.500,-0.014,-0.490,-0.153,1.520,9.730,-0.120,0.520,0.040,0.500,-24.562,3.750,25.500,1.250,9.710,-0.430,26,0,0,1,0
7024,335.688,7.375,-92.500,-0.004,-0.439,-0.120,1.450,9.660,-0.190,0.260,0.010,0.300,-24.562,3.750,25.500,1.240,9.710,-0.440,26,0,0,1,0
7035,336.000,7.312,-92.562,0.023,-0.409,-0.100,1.280,9.550,-0.260,0.200,-0.050,0.240,-24.562,3.750,25.500,1.230,9.710,-0.440,26,0,0,1,0
7045,336.250,7.250,-92.625,0.045,-0.371,-0.081,1.280,9.550,-0.260,0.040,-0.160,0.180,-24.562,3.750,25.500,1.230,9.710,-0.450,26,0,0,1,0
7053,336.438,7.188,-92.688,0.051,-0.322,-0.064,1.130,9.550,-0.300,-0.090,-0.160,0.150,-24.875,3.188,25.688,1.230,9.710,-0.450,26,0,0,1,0
7061,336.625,7.125,-92.750,0.057,-0.275,-0.057,1.140,9.650,-0.440,-0.080,-0.060,0.020,-24.875,3.188,25.688,1.220,9.710,-0.460,26,0,0,1,0
7070,336.812,7.125,-92.750,0.052,-0.231,-0.059,1.200,9.660,-0.500,-0.010,-0.050,-0.030,-24.875,3.188,25.688,1.210,9.710,-0.470,26,0,0,1,0
7081,336.938,7.062,-92.812,0.044,-0.206,-0.059,1.220,9.650,-0.510,0.000,-0.060,-0.030,-24.875,3.188,25.688,1.210,9.710,-0.480,26,0,0,1,0
7092,337.062,7.000,-92.812,0.037,-0.189,-0.059,1.290,9.540,-0.590,0.080,-0.170,-0.110,-24.875,3.188,25.688,1.200,9.720,-0.480,26,0,0,1,0
7099,337.062,7.000,-92.812,0.019,-0.164,-0.062,1.410,9.540,-0.590,0.210,-0.170,-0.100,-23.875,3.562,25.875,1.190,9.720,-0.490,26,0,0,1,0
7107,337.188,7.000,-92.875,0.019,-0.164,-0.062,1.390,9.540,-0.560,0.210,-0.170,-0.100,-23.875,3.562,25.875,1.190,9.720,-0.490,26,0,0,1,0
7115,337.375,6.938,-92.875,0.002,-0.169,-0.063,1.350,9.550,-0.680,0.200,-0.170,-0.070,-23.875,3.562,25.875,1.180,9.720,-0.490,26,0,0,1,0
7125,337.500,6.938,-92.875,0.000,-0.179,-0.068,1.230,9.550,-0.630,0.160,-0.160,-0.180,-23.875,3.562,25.875,1.170,9.720,-0.490,26,0,0,1,0
7135,337.625,6.875,-92.938,-0.001,-0.194,-0.074,1.220,9.580,-0.590,0.050,-0.160,-0.130,-23.875,3.562,25.875,1.170,9.720,-0.500,26,0,0,1,0
7145,337.812,6.812,-92.938,-0.005,-0.205,-0.075,1.220,9.580,-0.590,0.040,-0.140,-0.090,-23.875,3.562,25.875,1.160,9.720,-0.500,26,0,0,1,0
7153,337.938,6.812,-92.938,-0.017,-0.205,-0.074,1.160,9.650,-0.630,0.000,-0.060,-0.130,-23.562,4.250,27.250,1.160,9.720,-0.500,26,0,0,1,0
7161,338.062,6.750,-92.938,-0.021,-0.189,-0.069,1.140,9.700,-0.640,0.000,-0.020,-0.140,-23.562,4.250,27.250,1.150,9.720,-0.500,26,0,0,1,0
7168,338.062,6.750,-92.938,-0.024,-0.177,-0.069,1.290,9.640,-0.680,0.140,-0.080,-0.180,-23.562,4.250,27.250,1.140,9.720,-0.500,26,0,0,1,0
7178,338.250,6.688,-92.938,-0.041,-0.172,-0.065,1.330,9.570,-0.590,0.180,-0.150,-0.090,-23.562,4.250,27.250,1.140,9.720,-0.500,26,0,0,1,0
7187,338.375,6.688,-92.938,-0.041,-0.172,-0.065,1.300,9.530,-0.610,0.160,-0.190,-0.110,-23.562,4.250,27.250,1.130,9.720,-0.500,26,0,0,1,0
7196,338.500,6.625,-92.938,-0.058,-0.178,-0.057,1.180,9.580,-0.560,0.160,-0.190,-0.110,-23.562,4.250,27.250,1.130,9.720,-0.490,26,0,0,1,0
7204,338.625,6.625,-92.875,-0.059,-0.181,-0.055,1.180,9.580,-0.560,0.040,-0.140,-0.070,-23.750,2.688,27.062,1.130,9.720,-0.490,26,0,0,1,0
7212,338.750,6.562,-92.875,-0.053,-0.176,-0.049,1.090,9.600,-0.550,-0.030,-0.120,-0.060,-23.750,2.688,27.062,1.120,9.720,-0.490,26,0,0,1,0
7220,338.875,6.562,-92.875,-0.052,-0.168,-0.046,1.010,9.620,-0.660,-0.100,-0.100,-0.170,-23.750,2.688,27.062,1.120,9.720,-0.490,26,0,0,1,0
7229,338.875,6.562,-92.875,-0.052,-0.164,-0.039,0.990,9.580,-0.600,-0.120,-0.140,-0.110,-23.750,2.688,27.062,1.110,9.730,-0.480,26,0,0,1,0
7239,339.000,6.500,-92.875,-0.055,-0.161,-0.027,0.820,9.610,-0.590,-0.290,-0.110,-0.110,-23.750,2.688,27.062,1.110,9.730,-0.480,26,0,0,1,0
7247,339.125,6.500,-92.812,-0.055,-0.161,-0.027,0.790,9.660,-0.500,-0.290,-0.110,-0.110,-23.188,3.375,27.062,1.110,9.730,-0.480,26,0,0,1,0
7255,339.250,6.500,-92.812,-0.063,-0.147,-0.014,0.790,9.660,-0.500,-0.310,-0.060,-0.020,-23.188,3.375,27.062,1.110,9.730,-0.470,26,0,0,1,0
7263,339.312,6.500,-92.750,-0.075,-0.128,-0.003,0.770,9.700,-0.510,-0.340,-0.020,-0.040,-23.188,3.375,27.062,1.110,9.730,-0.470,26,0,0,1,0
7273,339.375,6.500,-92.750,-0.089,-0.104,0.000,0.790,9.680,-0.490,-0.320,-0.040,-0.020,-23.188,3.375,27.062,1.110,9.730,-0.450,26,0,0,1,0
7283,339.438,6.500,-92.688,-0.107,-0.083,0.013,0.780,9.710,-0.360,-0.330,-0.010,0.090,-23.188,3.375,27.062,1.110,9.730,-0.440,26,0,0,1,0
7294,339.438,6.500,-92.625,-0.118,-0.065,0.024,0.760,9.710,-0.350,-0.340,-0.020,0.080,-23.188,3.375,27.062,1.110,9.730,-0.440,26,0,0,1,0
7301,339.500,6.500,-92.562,-0.118,-0.036,0.033,0.780,9.650,-0.370,-0.330,-0.070,0.060,-23.062,3.688,26.500,1.110,9.730,-0.430,26,0,0,1,0
7309,339.500,6.500,-92.562,-0.109,-0.007,0.048,0.790,9.570,-0.420,-0.310,-0.150,0.000,-23.062,3.688,26.500,1.110,9.730,-0.420,26,0,0,1,0
7317,339.500,6.500,-92.500,-0.109,-0.007,0.048,0.760,9.540,-0.490,-0.310,-0.150,0.000,-23.062,3.688,26.500,1.110,9.730,-0.410,26,0,0,1,0
7325,339.500,6.500,-92.438,-0.098,0.011,0.062,0.740,9.550,-0.500,-0.340,-0.180,-0.070,-23.062,3.688,26.500,1.110,9.730,-0.400,26,0,0,1,0
7336,339.438,6.500,-92.375,-0.091,0.022,0.076,0.670,9.600,-0.470,-0.370,-0.170,-0.090,-23.062,3.688,26.500,1.120,9.730,-0.400,26,0,0,1,0
7346,339.438,6.562,-92.312,-0.083,0.036,0.086,0.670,9.600,-0.470,-0.450,-0.130,-0.070,-23.062,3.688,26.500,1.120,9.730,-0.390,26,0,0,1,0
7354,339.375,6.562,-92.312,-0.080,0.056,0.091,0.690,9.710,-0.420,-0.430,-0.010,-0.030,-21.688,2.875,27.750,1.120,9.730,-0.390,26,0,0,1,0
7361,339.312,6.625,-92.250,-0.084,0.064,0.103,0.720,9.720,-0.400,-0.400,0.000,-0.010,-21.688,2.875,27.750,1.130,9.730,-0.380,26,0,0,1,0
7369,339.312,6.625,-92.250,-0.088,0.069,0.111,0.710,9.720,-0.450,-0.420,-0.010,-0.070,-21.688,2.875,27.750,1.130,9.730,-0.370,26,0,0,1,0
7378,339.250,6.625,-92.188,-0.091,0.071,0.112,0.690,9.640,-0.440,-0.440,-0.080,-0.070,-21.688,2.875,27.750,1.140,9.730,-0.360,26,0,0,1,0
7387,339.188,6.688,-92.125,-0.091,0.071,0.112,0.760,9.630,-0.420,-0.380,-0.090,-0.060,-21.688,2.875,27.750,1.150,9.730,-0.360,26,0,0,1,0
7397,339.125,6.688,-92.125,-0.085,0.084,0.115,0.880,9.580,-0.430,-0.380,-0.090,-0.060,-21.688,2.875,27.750,1.150,9.730,-0.350,26,0,0,1,0
7404,339.000,6.750,-92.062,-0.073,0.110,0.117,0.880,9.580,-0.430,-0.270,-0.140,-0.080,-22.500,1.062,27.688,1.150,9.730,-0.350,26,0,0,1,0
7412,338.875,6.812,-92.000,-0.069,0.107,0.125,0.930,9.550,-0.390,-0.230,-0.170,-0.040,-22.500,1.062,27.688,1.160,9.730,-0.340,26,0,0,1,0
7420,338.750,6.875,-92.000,-0.069,0.112,0.127,0.900,9.520,-0.450,-0.260,-0.200,-0.100,-22.500,1.062,27.688,1.170,9.720,-0.340,26,0,0,1,0
7429,338.750,6.875,-92.000,-0.068,0.127,0.117,0.990,9.590,-0.420,-0.190,-0.130,-0.080,-22.500,1.062,27.688,1.180,9.720,-0.330,26,0,0,1,0
7438,338.625,6.938,-91.938,-0.061,0.125,0.115,1.070,9.610,-0.420,-0.120,-0.110,-0.090,-22.500,1.062,27.688,1.190,9.720,-0.320,26,0,0,1,0
7447,338.500,7.000,-91.875,-0.061,0.125,0.115,1.090,9.570,-0.440,-0.120,-0.110,-0.090,-22.500,1.062,27.688,1.200,9.720,-0.320,26,0,0,1,0
7455,338.375,7.062,-91.875,-0.060,0.125,0.113,1.090,9.570,-0.440,-0.110,-0.140,-0.120,-24.062,1.500,27.375,1.200,9.720,-0.320,26,0,0,1,0
7463,338.250,7.125,-91.812,-0.058,0.122,0.113,1.140,9.570,-0.460,-0.070,-0.140,-0.150,-24.062,1.500,27.375,1.210,9.720,-0.310,26,0,0,1,0
7470,338.125,7.188,-91.812,-0.058,0.115,0.111,1.220,9.580,-0.550,0.000,-0.130,-0.240,-24.062,1.500,27.375,1.220,9.720,-0.300,26,0,0,1,0
7479,338.125,7.188,-91.812,-0.067,0.120,0.111,1.260,9.610,-0.470,0.020,-0.100,-0.170,-24.062,1.500,27.375,1.240,9.720,-0.300,26,0,0,1,0
7489,338.000,7.250,-91.750,-0.077,0.142,0.108,1.460,9.670,-0.370,0.200,-0.040,-0.080,-24.062,1.500,27.375,1.250,9.720,-0.290,26,0,0,1,0
7498,337.875,7.312,-91.688,-0.077,0.142,0.108,1.470,9.650,-0.350,0.200,-0.040,-0.080,-22.875,3.250,27.750,1.260,9.720,-0.280,26,0,0,1,0
7506,337.750,7.375,-91.625,-0.081,0.140,0.100,1.470,9.650,-0.350,0.210,-0.060,-0.070,-22.875,3.250,27.750,1.270,9.720,-0.270,26,0,0,1,0
7513,337.625,7.438,-91.562,-0.077,0.141,0.100,1.470,9.540,-0.340,0.190,-0.170,-0.060,-22.875,3.250,27.750,1.280,9.710,-0.260,26,0,0,1,0
7523,337.500,7.500,-91.562,-0.081,0.131,0.100,1.520,9.480,-0.450,0.240,-0.230,-0.180,-22.875,3.250,27.750,1.290,9.710,-0.250,26,0,0,1,0
7534,337.375,7.500,-91.500,-0.089,0.136,0.098,1.400,9.560,-0.250,0.160,-0.190,-0.110,-22.875,3.250,27.750,1.290,9.710,-0.240,26,0,0,1,0
7545,337.250,7.562,-91.438,-0.094,0.152,0.092,1.400,9.560,-0.250,0.100,-0.150,-0.010,-22.875,3.250,27.750,1.290,9.710,-0.240,26,0,0,1,0
7553,337.125,7.625,-91.375,-0.086,0.154,0.076,1.460,9.600,-0.220,0.150,-0.110,0.010,-23.250,2.875,28.188,1.300,9.710,-0.230,26,0,0,1,0
7560,337.125,7.625,-91.375,-0.081,0.140,0.069,1.660,9.530,-0.260,0.340,-0.180,-0.030,-23.250,2.875,28.188,1.310,9.710,-0.220,26,0,0,1,0
7568,337.000,7.688,-91.312,-0.081,0.140,0.069,1.770,9.420,-0.280,0.440,-0.280,-0.060,-23.250,2.875,28.188,1.320,9.710,-0.210,26,0,0,1,0
7577,336.875,7.750,-91.250,-0.086,0.140,0.074,1.850,9.390,-0.190,0.520,-0.310,0.010,-23.250,2.875,28.188,1.330,9.710,-0.200,26,0,0,1,0
7587,336.750,7.812,-91.188,-0.089,0.137,0.073,1.900,9.480,-0.100,0.560,-0.220,0.090,-23.250,2.875,28.188,1.340,9.710,-0.190,26,0,0,1,0
7597,336.625,7.812,-91.125,-0.091,0.148,0.067,1.900,9.480,-0.100,0.560,-0.220,0.090,-23.250,2.875,28.188,1.340,9.710,-0.180,26,0,0,1,0
7604,336.500,7.875,-91.062,-0.087,0.149,0.063,1.890,9.520,-0.190,0.540,-0.180,0.000,-24.375,3.250,27.000,1.340,9.710,-0.180,26,0,0,1,0
7612,336.375,7.938,-91.000,-0.091,0.157,0.061,1.910,9.480,-0.180,0.560,-0.220,0.000,-24.375,3.250,27.000,1.350,9.710,-0.170,26,0,0,1,0
7622,336.250,7.938,-90.938,-0.096,0.182,0.060,1.910,9.500,-0.180,0.540,-0.200,-0.020,-24.375,3.250,27.000,1.360,9.710,-0.160,26,0,0,1,0
7632,336.062,8.062,-90.875,-0.094,0.196,0.055,1.870,9.600,-0.160,0.490,-0.100,-0.010,-24.375,3.250,27.000,1.370,9.700,-0.150,26,0,0,1,0
7643,335.938,8.125,-90.812,-0.088,0.193,0.051,1.760,9.570,-0.210,0.370,-0.120,-0.070,-24.375,3.250,27.000,1.380,9.700,-0.140,26,0,0,1,0
7650,335.938,8.125,-90.812,-0.095,0.208,0.055,1.770,9.540,-0.230,0.370,-0.150,-0.100,-23.000,2.750,26.562,1.390,9.700,-0.130,26,0,0,1,0
7658,335.750,8.188,-90.750,-0.095,0.208,0.055,1.740,9.550,-0.150,0.370,-0.150,-0.100,-23.000,2.750,26.562,1.400,9.700,-0.120,26,0,0,1,0
7666,335.562,8.250,-90.688,-0.099,0.231,0.048,1.740,9.550,-0.150,0.330,-0.140,-0.030,-23.000,2.750,26.562,1.410,9.700,-0.100,26,0,0,1,0
7674,335.375,8.312,-90.625,-0.093,0.249,0.039,1.740,9.470,-0.210,0.320,-0.220,-0.100,-23.000,2.750,26.562,1.420,9.700,-0.090,26,0,0,1,0
7684,335.188,8.312,-90.562,-0.094,0.251,0.035,1.680,9.350,-0.070,0.300,-0.300,-0.090,-23.000,2.750,26.562,1.430,9.700,-0.080,26,0,0,1,0
7695,335.000,8.375,-90.500,-0.104,0.250,0.034,1.680,9.350,-0.070,0.240,-0.340,0.000,-23.000,2.750,26.562,1.430,9.700,-0.080,26,0,0,1,0
7702,335.000,8.375,-90.500,-0.104,0.250,0.034,1.680,9.350,-0.070,0.240,-0.340,0.000,-23.000,2.750,26.562,1.430,9.700,-0.080,26,0,0,1,0
7710,334.875,8.438,-90.375,-0.110,0.255,0.026,1.630,9.650,-0.010,0.160,-0.270,0.120,-24.500,2.750,26.875,1.440,9.700,-0.050,26,0,0,1,0
7718,334.750,8.438,-90.312,-0.103,0.257,0.009,1.660,9.750,-0.110,0.220,0.050,-0.060,-24.500,2.750,26.875,1.440,9.690,-0.040,26,0,0,1,0
7727,334.562,8.438,-90.250,-0.084,0.267,0.004,1.670,9.740,-0.130,0.230,0.040,-0.090,-24.500,2.750,26.875,1.440,9.690,-0.030,26,0,0,1,0
7737,334.438,8.438,-90.188,-0.077,0.266,0.002,1.720,9.690,-0.110,0.280,0.000,-0.090,-24.500,2.750,26.875,1.440,9.690,-0.020,26,0,0,1,0
7747,334.312,8.438,-90.125,-0.084,0.266,-0.001,1.730,9.490,-0.030,0.280,0.000,-0.090,-24.500,2.750,26.875,1.440,9.690,-0.010,26,0,0,1,0
7755,334.125,8.438,-90.062,-0.093,0.272,-0.007,1.730,9.490,-0.030,0.290,-0.200,-0.020,-25.562,3.500,25.250,1.440,9.690,-0.010,26,0,0,1,0
7762,334.000,8.438,-89.938,-0.097,0.279,-0.012,1.680,9.470,0.020,0.230,-0.220,0.020,-25.562,3.500,25.250,1.440,9.700,0.000,26,0,0,1,0
7772,333.875,8.438,-89.875,-0.096,0.272,-0.013,1.620,9.480,-0.020,0.180,-0.210,-0.040,-25.562,3.500,25.250,1.440,9.690,0.010,26,0,0,1,0
7781,333.750,8.438,-89.812,-0.088,0.250,-0.025,1.570,9.640,0.090,0.130,-0.050,0.060,-25.562,3.500,25.250,1.440,9.700,0.020,26,0,0,1,0
7790,333.750,8.438,-89.812,-0.073,0.257,-0.035,1.550,9.600,0.140,0.110,-0.090,0.100,-25.562,3.500,25.250,1.430,9.700,0.030,26,0,0,1,0
7798,333.625,8.438,-89.750,-0.073,0.257,-0.035,1.500,9.570,0.120,0.110,-0.090,0.100,-25.688,2.562,27.250,1.430,9.700,0.040,26,0,0,1,0
7806,333.500,8.375,-89.688,-0.070,0.259,-0.045,1.500,9.570,0.120,0.060,-0.120,0.070,-25.688,2.562,27.250,1.430,9.700,0.050,26,0,0,1,0
7814,333.375,8.375,-89.625,-0.059,0.264,-0.051,1.480,9.560,0.100,0.050,-0.130,0.040,-25.688,2.562,27.250,1.430,9.700,0.050,26,0,0,1,0
7823,333.312,8.312,-89.562,-0.055,0.268,-0.060,1.600,9.620,0.050,0.180,-0.070,0.000,-25.688,2.562,27.250,1.420,9.700,0.060,26,0,0,1,0
7833,333.188,8.312,-89.500,-0.067,0.272,-0.060,1.600,9.650,0.110,0.180,-0.040,0.040,-25.688,2.562,27.250,1.420,9.700,0.070,26,0,0,1,0
7843,333.062,8.250,-89.438,-0.072,0.286,-0.065,1.700,9.670,0.140,0.290,-0.030,0.060,-25.688,2.562,27.250,1.410,9.700,0.080,26,0,0,1,0
7851,333.062,8.250,-89.438,-0.065,0.287,-0.072,1.780,9.510,0.180,0.370,-0.180,0.080,-26.250,2.250,25.750,1.410,9.700,0.090,26,0,0,1,0
7859,332.938,8.250,-89.375,-0.065,0.287,-0.072,1.880,9.470,0.170,0.370,-0.180,0.080,-26.250,2.250,25.750,1.400,9.700,0.100,26,0,0,1,0
7866,332.750,8.250,-89.312,-0.061,0.303,-0.077,1.920,9.460,0.130,0.470,-0.220,0.060,-26.250,2.250,25.750,1.400,9.700,0.110,26,0,0,1,0
7875,332.625,8.188,-89.250,-0.051,0.331,-0.079,1.900,9.420,0.060,0.520,-0.240,0.010,-26.250,2.250,25.750,1.390,9.700,0.120,26,0,0,1,0
7886,332.500,8.125,-89.250,-0.046,0.334,-0.081,2.140,9.490,-0.040,0.510,-0.280,-0.060,-26.250,2.250,25.750,1.380,9.700,0.130,26,0,0,1,0
7896,332.375,8.062,-89.188,-0.044,0.322,-0.088,2.140,9.490,-0.040,0.760,-0.210,-0.180,-26.250,2.250,25.750,1.370,9.700,0.140,26,0,0,1,0
7904,332.312,8.000,-89.125,-0.047,0.283,-0.091,2.070,9.580,-0.110,0.700,-0.120,-0.250,-25.562,1.875,25.062,1.370,9.700,0.140,26,0,0,1,0
7912,332.188,8.000,-89.062,-0.037,0.272,-0.091,2.020,9.500,0.000,0.650,-0.200,-0.150,-25.562,1.875,25.062,1.360,9.700,0.150,26,0,0,1,0
7922,332.125,7.938,-89.062,-0.045,0.271,-0.093,1.890,9.390,0.150,0.530,-0.320,0.000,-25.562,1.875,25.062,1.350,9.710,0.150,26,0,0,1,0
7931,332.000,7.875,-88.938,-0.073,0.288,-0.095,1.580,9.430,0.490,0.220,-0.270,0.320,-25.562,1.875,25.062,1.350,9.710,0.160,26,0,0,1,0
7941,331.875,7.812,-88.875,-0.080,0.267,-0.106,1.400,9.560,0.180,0.060,-0.140,0.000,-25.562,1.875,25.062,1.340,9.710,0.180,26,0,0,1,0
7949,331.875,7.812,-88.875,-0.080,0.267,-0.106,1.240,9.500,0.120,-0.080,-0.210,-0.060,-26.688,3.000,25.500,1.330,9.710,0.180,26,0,0,1,0
7957,331.812,7.750,-88.875,-0.059,0.255,-0.113,1.240,9.500,0.120,-0.080,-0.210,-0.060,-26.688,3.000,25.500,1.320,9.710,0.190,26,0,0,1,0
7964,331.688,7.688,-88.812,-0.050,0.327,-0.123,1.080,9.570,0.400,-0.230,-0.130,0.200,-26.688,3.000,25.500,1.300,9.710,0.200,26,0,0,1,0
7975,331.562,7.625,-88.750,-0.034,0.417,-0.130,1.090,9.930,0.660,-0.280,0.030,0.380,-26.688,3.000,25.500,1.290,9.710,0.210,26,0,0,1,0
7985,331.375,7.562,-88.688,-0.023,0.465,-0.122,1.170,10.000,0.540,-0.200,0.210,0.440,-26.688,3.000,25.500,1.280,9.710,0.220,26,0,0,1,0
7996,331.188,7.500,-88.625,-0.029,0.476,-0.097,1.170,10.000,0.540,-0.110,0.280,0.310,-26.688,3.000,25.500,1.270,9.720,0.230,26,0,0,1,0
8004,331.000,7.438,-88.562,-0.046,0.465,-0.069,1.280,9.720,0.550,0.000,0.000,0.310,-26.062,3.688,25.500,1.270,9.720,0.230,26,0,0,1,0
8012,330.750,7.438,-88.500,-0.064,0.481,-0.055,1.390,9.580,0.450,0.120,-0.130,0.200,-26.062,3.688,25.500,1.270,9.720,0.240,26,0,0,1,0
8021,330.500,7.375,-88.438,-0.063,0.496,-0.034,1.310,9.480,0.530,0.040,-0.230,0.270,-26.062,3.688,25.500,1.260,9.720,0.250,26,0,0,1,0
8030,330.500,7.375,-88.438,-0.041,0.532,-0.007,1.070,9.650,0.940,-0.190,-0.060,0.670,-26.062,3.688,25.500,1.260,9.720,0.270,26,0,0,1,0
8041,330.250,7.375,-88.375,-0.032,0.525,-0.001,0.980,9.860,1.000,-0.270,0.140,0.720,-26.062,3.688,25.500,1.260,9.720,0.280,26,0,0,1,0
8049,329.938,7.375,-88.312,-0.032,0.525,-0.001,1.090,9.900,1.040,-0.270,0.140,0.720,-25.062,1.688,22.750,1.260,9.720,0.290,26,0,0,1,0
8057,329.688,7.375,-88.250,-0.025,0.515,-0.002,1.090,9.900,1.040,-0.160,0.180,0.750,-25.062,1.688,22.750,1.260,9.720,0.290,26,0,0,1,0
8064,329.438,7.375,-88.188,-0.041,0.512,-0.002,1.210,9.860,1.160,-0.040,0.140,0.860,-25.062,1.688,22.750,1.250,9.720,0.310,26,0,0,1,0
8075,329.188,7.312,-88.125,-0.074,0.481,0.007,1.600,9.750,0.790,0.260,0.130,0.620,-25.062,1.688,22.750,1.260,9.710,0.320,26,0,0,1,0
8085,328.875,7.375,-88.062,-0.074,0.451,0.051,1.480,9.690,0.780,0.340,0.030,0.470,-25.062,1.688,22.750,1.260,9.710,0.330,26,0,0,1,0
8096,328.625,7.438,-88.000,-0.064,0.380,0.099,1.480,9.690,0.780,0.210,-0.020,0.440,-25.062,1.688,22.750,1.260,9.710,0.330,26,0,0,1,0
8104,328.438,7.500,-87.938,-0.074,0.289,0.125,1.430,9.600,0.770,0.150,-0.110,0.420,-25.750,1.000,22.188,1.280,9.710,0.340,26,0,0,1,0
8112,328.438,7.500,-87.938,-0.109,0.199,0.130,1.550,9.580,0.640,0.260,-0.120,0.270,-25.750,1.000,22.188,1.290,9.710,0.360,26,0,0,1,0
8121,328.250,7.562,-87.812,-0.134,0.095,0.130,1.490,9.670,0.440,0.190,-0.030,0.060,-25.750,1.000,22.188,1.300,9.710,0.370,26,0,0,1,0
8131,328.062,7.688,-87.688,-0.149,-0.016,0.131,1.290,9.680,0.290,-0.020,-0.020,-0.090,-25.750,1.000,22.188,1.310,9.710,0.390,26,0,0,1,0
8142,328.062,7.750,-87.625,-0.137,-0.097,0.139,1.110,9.560,0.080,-0.210,-0.140,-0.310,-25.750,1.000,22.188,1.320,9.700,0.400,26,0,0,1,0
8149,328.062,7.750,-87.625,-0.137,-0.097,0.139,0.980,9.470,0.250,-0.350,-0.230,-0.150,-29.188,1.875,20.875,1.340,9.700,0.410,26,0,0,1,0
8157,328.062,7.875,-87.562,-0.127,-0.157,0.163,0.980,9.470,0.250,-0.350,-0.230,-0.150,-29.188,1.875,20.875,1.360,9.700,0.420,26,0,0,1,0
8165,328.125,7.938,-87.500,-0.144,-0.260,0.161,0.640,9.570,0.340,-0.710,-0.120,-0.070,-29.188,1.875,20.875,1.370,9.690,0.430,26,0,0,1,0
8175,328.250,8.062,-87.438,-0.169,-0.313,0.152,0.250,9.780,0.260,-0.970,0.040,-0.170,-29.188,1.875,20.875,1.390,9.690,0.440,26,0,0,1,0
8186,328.312,8.125,-87.312,-0.164,-0.307,0.167,0.250,9.760,0.220,-1.140,0.090,-0.170,-29.188,1.875,20.875,1.410,9.690,0.450,26,0,0,1,0
8197,328.375,8.250,-87.250,-0.165,-0.295,0.175,0.250,9.760,0.220,-1.150,0.070,-0.230,-29.188,1.875,20.875,1.430,9.690,0.460,26,0,0,1,0
8205,328.438,8.375,-87.188,-0.169,-0.271,0.179,0.290,9.720,0.210,-1.130,0.030,-0.250,-28.250,2.375,22.875,1.430,9.690,0.460,26,0,0,1,0
8212,328.438,8.438,-87.125,-0.157,-0.238,0.191,0.250,9.620,0.320,-1.190,-0.050,-0.150,-28.250,2.375,22.875,1.440,9.680,0.480,26,0,0,1,0
8222,328.500,8.562,-87.062,-0.156,-0.225,0.183,-0.140,9.780,0.590,-1.610,0.090,0.100,-28.250,2.375,22.875,1.460,9.680,0.490,26,0,0,1,0
8232,328.500,8.688,-87.000,-0.147,-0.167,0.158,-0.040,10.150,0.830,-1.520,0.470,0.330,-28.250,2.375,22.875,1.480,9.680,0.500,26,0,0,1,0
8242,328.500,8.750,-86.938,-0.118,-0.072,0.091,0.390,10.460,0.950,-1.090,0.780,0.430,-28.250,2.375,22.875,1.490,9.670,0.510,26,0,0,1,0
8250,328.500,8.750,-86.938,-0.118,-0.072,0.091,0.760,9.800,0.730,-1.090,0.780,0.430,-28.062,1.688,23.250,1.490,9.670,0.520,26,0,0,1,0
8257,328.500,8.750,-86.875,-0.091,-0.025,0.050,0.760,9.800,0.730,-0.730,0.120,0.210,-28.062,1.688,23.250,1.490,9.670,0.520,26,0,0,1,0
8265,328.438,8.750,-86.812,-0.075,0.027,0.046,0.860,9.380,0.660,-0.630,-0.290,0.130,-28.062,1.688,23.250,1.500,9.670,0.530,26,0,0,1,0
8275,328.375,8.812,-86.812,-0.063,0.107,0.052,1.200,9.420,0.900,-0.490,-0.390,0.220,-28.062,1.688,23.250,1.510,9.670,0.540,26,0,0,1,0
8286,328.250,8.812,-86.750,-0.046,0.166,0.065,1.310,9.800,1.340,-0.300,-0.240,0.360,-28.062,1.688,23.250,1.510,9.670,0.540,26,0,0,1,0
8297,328.125,8.875,-86.750,-0.027,0.185,0.087,1.310,9.800,1.340,-0.200,0.120,0.790,-28.062,1.688,23.250,1.510,9.670,0.540,26,0,0,1,0
8305,327.938,8.938,-86.688,-0.015,0.214,0.103,1.260,9.790,1.410,-0.250,0.120,0.850,-28.000,1.750,22.188,1.520,9.670,0.550,26,0,0,1,0
8312,327.750,9.000,-86.688,0.014,0.229,0.093,1.110,9.880,1.420,-0.410,0.210,0.860,-28.000,1.750,22.188,1.530,9.660,0.550,26,0,0,1,0
8322,327.562,9.000,-86.688,0.043,0.273,0.070,1.390,9.800,1.180,-0.140,0.130,0.620,-28.000,1.750,22.188,1.530,9.660,0.550,26,0,0,1,0
8333,327.375,9.000,-86.688,0.074,0.314,0.055,1.810,9.720,1.120,0.270,0.050,0.560,-28.000,1.750,22.188,1.540,9.660,0.550,26,0,0,1,0
8344,327.188,9.062,-86.750,0.133,0.343,0.071,2.130,9.520,1.130,0.580,-0.130,0.580,-28.000,1.750,22.188,1.540,9.660,0.540,26,0,0,1,0
8351,327.188,9.062,-86.750,0.161,0.326,0.099,2.300,9.390,1.010,0.750,-0.270,0.470,-28.062,1.188,22.000,1.550,9.660,0.530,26,0,0,1,0
8359,326.938,9.125,-86.812,0.161,0.326,0.099,2.460,9.280,1.170,0.750,-0.270,0.470,-28.062,1.188,22.000,1.560,9.660,0.520,26,0,0,1,0
8367,326.688,9.125,-86.875,0.157,0.274,0.113,2.510,9.390,1.170,0.890,-0.380,0.640,-28.062,1.188,22.000,1.570,9.660,0.510,26,0,0,1,0
8377,326.562,9.188,-86.938,0.135,0.215,0.092,2.360,9.520,1.290,0.940,-0.270,0.660,-28.062,1.188,22.000,1.570,9.660,0.500,26,0,0,1,0
8387,326.375,9.250,-87.000,0.117,0.149,0.075,2.350,9.550,1.410,0.780,-0.130,0.790,-28.062,1.188,22.000,1.580,9.660,0.490,26,0,0,1,0
8398,326.312,9.250,-87.000,0.128,0.108,0.062,2.350,9.550,1.410,0.770,-0.100,0.910,-28.062,1.188,22.000,1.580,9.660,0.480,26,0,0,1,0
8405,326.250,9.312,-87.125,0.139,0.028,0.036,2.430,9.440,1.120,0.840,-0.210,0.640,-27.688,2.250,22.000,1.580,9.660,0.480,26,0,0,1,0
8413,326.250,9.312,-87.188,0.139,-0.055,0.021,2.540,9.400,0.950,0.950,-0.260,0.480,-27.688,2.250,22.000,1.580,9.660,0.460,26,0,0,1,0
8423,326.125,9.500,-87.188,0.147,-0.110,0.023,2.620,9.390,0.840,1.000,-0.260,0.370,-27.688,2.250,22.000,1.620,9.660,0.470,26,0,0,1,0
8433,326.188,9.500,-87.312,0.154,-0.166,0.037,2.490,9.450,0.860,0.870,-0.200,0.400,-27.688,2.250,22.000,1.620,9.660,0.450,26,0,0,1,0
8444,326.250,9.562,-87.375,0.175,-0.202,0.044,2.120,9.550,0.860,0.490,-0.100,0.420,-27.688,2.250,22.000,1.630,9.660,0.430,26,0,0,1,0
8452,326.312,9.562,-87.500,0.200,-0.182,0.023,1.830,9.640,0.790,0.200,-0.010,0.380,-28.500,1.062,21.000,1.630,9.660,0.410,26,0,0,1,0
8460,326.312,9.562,-87.500,0.200,-0.182,0.023,1.650,9.670,0.830,0.200,-0.010,0.380,-28.500,1.062,21.000,1.630,9.660,0.380,26,0,0,1,0
8467,326.375,9.562,-87.688,0.225,-0.145,-0.020,1.380,9.520,0.470,0.020,0.010,0.440,-28.500,1.062,21.000,1.620,9.660,0.360,26,0,0,1,0
8477,326.438,9.500,-87.812,0.233,-0.140,-0.040,1.290,9.480,0.440,-0.230,-0.130,0.100,-28.500,1.062,21.000,1.620,9.660,0.330,26,0,0,1,0
8493,326.562,9.500,-88.125,0.273,-0.100,-0.036,1.120,9.580,0.440,-0.500,-0.070,0.120,-28.500,1.062,21.000,1.620,9.660,0.310,26,0,0,1,0
8500,326.562,9.500,-88.125,0.273,-0.100,-0.036,0.830,9.810,0.020,-0.500,-0.070,0.120,-28.188,1.875,22.250,1.610,9.660,0.280,26,0,0,1,0
8508,326.625,9.500,-88.312,0.303,-0.085,-0.034,0.830,9.810,0.020,-0.780,0.140,-0.250,-28.188,1.875,22.250,1.610,9.660,0.240,26,0,0,1,0
8516,326.625,9.438,-88.500,0.351,-0.089,-0.047,0.440,9.850,-0.160,-1.160,0.190,-0.410,-28.188,1.875,22.250,1.600,9.670,0.200,26,0,0,1,0
8526,326.688,9.438,-88.750,0.400,-0.091,-0.063,-0.370,9.920,-0.560,-1.610,0.190,-0.620,-28.188,1.875,22.250,1.590,9.670,0.160,26,0,0,1,0
8537,326.750,9.375,-89.000,0.449,-0.083,-0.112,-1.020,10.040,-0.690,-1.970,0.240,-0.720,-28.188,1.875,22.250,1.580,9.670,0.110,26,0,0,1,0
8548,326.875,9.250,-89.250,0.497,-0.109,-0.173,-1.020,10.040,-0.690,-2.600,0.360,-0.810,-28.188,1.875,22.250,1.560,9.680,0.060,26,0,0,1,0
8555,327.062,9.125,-89.562,0.545,-0.157,-0.231,-1.350,10.060,-0.830,-2.920,0.380,-0.890,-28.500,1.875,22.750,1.560,9.680,0.060,26,0,0,1,0
8563,327.312,8.938,-89.938,0.598,-0.221,-0.308,-1.790,9.940,-0.920,-3.320,0.250,-0.920,-28.500,1.875,22.750,1.530,9.680,0.000,26,0,0,1,0
8572,327.625,8.750,-90.312,0.624,-0.281,-0.412,-2.120,9.740,-1.140,-3.610,0.050,-1.090,-28.500,1.875,22.750,1.490,9.690,-0.050,26,0,0,1,0
8582,328.000,8.438,-90.688,0.614,-0.297,-0.521,-2.600,9.490,-0.620,-4.040,-0.200,-0.500,-28.500,1.875,22.750,1.440,9.690,-0.120,26,0,0,1,0
8592,328.438,8.125,-91.000,0.528,-0.224,-0.601,-2.850,9.560,0.140,-4.240,-0.140,0.310,-28.500,1.875,22.750,1.380,9.700,-0.170,26,0,0,1,0
8600,328.438,8.125,-91.000,0.528,-0.224,-0.601,-3.000,9.870,0.520,-4.320,0.160,0.730,-27.688,1.375,22.688,1.320,9.710,-0.200,26,0,0,1,0
8608,328.812,7.750,-91.188,0.370,-0.072,-0.676,-3.000,9.870,0.520,-4.320,0.160,0.730,-27.688,1.375,22.688,1.250,9.720,-0.230,26,0,0,1,0
8616,329.125,7.312,-91.375,0.291,0.159,-0.733,-1.590,10.220,0.670,-2.850,0.500,0.900,-27.688,1.375,22.688,1.180,9.730,-0.250,26,0,0,1,0
8626,329.312,6.875,-91.500,0.292,0.411,-0.757,0.900,10.470,0.580,-1.220,0.430,0.860,-27.688,1.375,22.688,1.110,9.730,-0.270,26,0,0,1,0
8637,329.312,6.500,-91.562,0.267,0.671,-0.748,1.710,10.370,0.810,-0.200,0.730,0.860,-27.688,1.375,22.688,1.060,9.740,-0.280,26,0,0,1,0
8648,329.000,6.188,-91.688,0.280,1.043,-0.578,1.710,10.370,0.810,0.650,0.630,1.100,-27.688,1.375,22.688,1.020,9.740,-0.300,26,0,0,1,0
8655,328.500,5.938,-91.750,0.265,1.288,-0.468,2.790,10.360,0.580,1.770,0.610,0.880,-26.562,3.500,22.875,1.020,9.740,-0.300,26,0,0,1,0
8663,328.000,5.688,-91.812,0.228,1.414,-0.505,3.730,10.660,0.340,2.750,0.910,0.650,-26.562,3.500,22.875,0.970,9.750,-0.300,26,0,0,1,0
8672,328.000,5.688,-91.812,0.172,1.441,-0.554,4.400,10.950,0.310,3.470,1.190,0.620,-26.562,3.500,22.875,0.930,9.750,-0.310,26,0,0,1,0
8682,327.438,5.438,-91.812,0.107,1.397,-0.520,4.750,10.010,0.380,3.870,0.250,0.690,-26.562,3.500,22.875,0.880,9.760,-0.310,26,0,0,1,0
8692,326.938,5.188,-91.812,-0.026,1.361,-0.448,4.160,9.120,0.880,3.310,-0.640,1.170,-26.562,3.500,22.875,0.840,9.760,-0.290,26,0,0,1,0
8700,326.438,4.938,-91.688,-0.026,1.361,-0.448,3.430,8.710,1.630,3.310,-0.640,1.170,-28.562,2.750,23.062,0.800,9.760,-0.260,26,0,0,1,0
8708,325.875,4.688,-91.500,-0.233,1.394,-0.459,3.430,8.710,1.630,2.620,-1.050,1.890,-28.562,2.750,23.062,0.760,9.770,-0.210,26,0,0,1,0
8716,325.312,4.438,-91.250,-0.399,1.529,-0.523,2.880,8.740,1.970,2.110,-1.030,2.190,-28.562,2.750,23.062,0.700,9.770,-0.150,26,0,0,1,0
8726,324.750,4.125,-90.875,-0.471,1.701,-0.601,1.940,9.170,2.260,1.720,-0.510,2.110,-28.562,2.750,23.062,0.650,9.780,-0.090,26,0,0,1,0
8737,324.062,3.750,-90.562,-0.500,1.894,-0.641,1.520,8.990,2.330,1.290,-0.610,2.360,-28.562,2.750,23.062,0.590,9.780,-0.020,26,0,0,1,0
8748,323.250,3.438,-90.125,-0.590,2.130,-0.648,1.520,8.990,2.330,0.930,-0.790,2.360,-28.562,2.750,23.062,0.590,9.780,-0.020,26,0,0,1,0
8755,322.250,3.062,-89.688,-0.702,2.451,-0.645,1.460,8.810,2.270,0.930,-0.980,2.220,-27.688,-1.500,20.500,0.520,9.790,0.050,26,0,0,1,0
8763,321.188,2.750,-89.188,-0.770,2.632,-0.590,1.540,8.220,3.110,1.070,-1.570,2.980,-27.688,-1.500,20.500,0.470,9.790,0.130,26,0,0,1,0
8772,321.188,2.750,-89.188,-0.836,2.628,-0.527,1.850,8.110,3.930,1.440,-1.680,3.700,-27.688,-1.500,20.500,0.410,9.790,0.220,26,0,0,1,0
8782,320.062,2.375,-88.625,-0.947,2.554,-0.457,2.220,8.490,3.860,1.850,-1.300,3.530,-27.688,-1.500,20.500,0.360,9.790,0.320,26,0,0,1,0
8792,318.938,2.125,-88.062,-0.932,2.403,-0.353,2.310,8.960,2.570,1.990,-0.820,2.140,-27.688,-1.500,20.500,0.320,9.790,0.420,26,0,0,1,0
8800,317.875,1.875,-87.500,-0.932,2.403,-0.353,2.560,8.850,2.190,1.990,-0.820,2.140,-29.688,-2.750,14.875,0.280,9.780,0.500,26,0,0,1,0
8808,316.812,1.625,-87.000,-0.781,2.355,-0.268,2.560,8.850,2.190,2.270,-0.930,1.690,-29.688,-2.750,14.875,0.280,9.780,0.500,26,0,0,1,0
8816,315.625,1.500,-86.625,-0.628,2.418,-0.189,2.770,8.920,1.610,2.520,-0.860,1.040,-29.688,-2.750,14.875,0.230,9.780,0.620,26,0,0,1,0
8826,314.438,1.312,-86.312,-0.468,2.449,-0.082,2.800,8.700,-1.070,2.560,-1.000,1.240,-29.688,-2.750,14.875,0.210,9.780,0.660,26,0,0,1,0
8837,313.188,1.250,-86.062,-0.398,2.398,-0.029,3.150,8.250,-2.140,2.580,-1.080,-1.730,-29.688,-2.750,14.875,0.190,9.780,0.680,26,0,0,1,0
8848,312.000,1.125,-85.938,-0.190,2.358,-0.032,3.150,8.250,-2.140,2.950,-1.520,-2.830,-29.688,-2.750,14.875,0.190,9.780,0.680,26,0,0,1,0
8856,310.812,1.000,-85.875,-0.056,2.376,-0.040,3.500,7.670,-2.540,3.320,-2.100,-3.240,-31.500,-4.562,11.500,0.170,9.780,0.690,26,0,0,1,0
8864,309.562,1.000,-85.812,-0.165,2.219,0.111,3.850,7.070,-2.150,3.680,-2.700,-2.870,-31.500,-4.562,11.500,0.170,9.770,0.710,26,0,0,1,0
8873,308.562,1.062,-85.625,-0.310,1.705,0.286,3.320,7.970,-3.480,3.130,-1.800,-4.230,-31.500,-4.562,11.500,0.180,9.770,0.740,26,0,0,1,0
8883,307.938,1.188,-85.562,-0.064,0.880,0.313,1.140,9.490,-6.590,0.930,-0.280,-7.340,-31.500,-4.562,11.500,0.210,9.770,0.750,26,0,0,1,0
8893,307.438,1.375,-85.812,0.528,0.601,0.329,-0.300,11.360,-7.930,-0.540,1.580,-8.640,-31.500,-4.562,11.500,0.230,9.770,0.700,26,0,0,1,0
8901,307.438,1.375,-85.812,0.528,0.601,0.329,-0.790,14.980,-3.780,-0.540,1.580,-8.640,-33.250,-4.375,6.688,0.270,9.780,0.630,26,0,0,1,0
8909,306.938,1.562,-86.312,0.822,0.505,0.422,-0.790,14.980,-3.780,-1.070,5.200,-4.410,-33.250,-4.375,6.688,0.320,9.780,0.580,26,0,0,1,0
8916,306.438,1.875,-86.562,0.539,0.329,0.544,-0.690,16.760,0.090,-1.020,6.980,-0.480,-33.250,-4.375,6.688,0.380,9.780,0.600,26,0,0,1,0
8927,305.875,2.188,-86.438,-0.206,0.445,0.604,0.050,12.890,0.970,-0.560,6.670,1.120,-33.250,-4.375,6.688,0.410,9.770,0.650,26,0,0,1,0
8937,305.312,2.438,-86.125,-0.547,0.600,0.452,-2.140,6.280,2.140,-0.360,3.110,0.320,-33.250,-4.375,6.688,0.440,9.770,0.690,26,0,0,1,0
8948,304.875,2.562,-85.875,-0.404,0.516,0.302,-2.140,6.280,2.140,-2.590,-3.480,1.450,-33.250,-4.375,6.688,0.440,9.760,0.730,26,0,0,1,0
8956,304.562,2.562,-85.688,-0.398,0.554,0.074,-1.600,6.750,3.240,-2.050,-3.010,2.500,-33.188,-2.875,5.062,0.440,9.760,0.730,26,0,0,1,0
8964,304.312,2.562,-85.375,-0.429,0.636,-0.040,-0.340,8.020,3.040,-0.780,-1.740,2.260,-33.188,-2.875,5.062,0.430,9.760,0.770,26,0,0,1,0
8973,304.312,2.562,-85.375,-0.238,0.671,0.033,2.260,10.240,1.370,1.820,0.470,0.560,-33.188,-2.875,5.062,0.430,9.760,0.800,26,0,0,1,0
8983,303.500,2.625,-85.250,0.059,0.579,0.188,2.750,10.380,1.050,2.300,0.610,0.250,-33.188,-2.875,5.062,0.450,9.760,0.800,26,0,0,1,0
8993,303.188,2.750,-85.375,0.193,0.355,0.275,2.570,10.420,0.660,2.100,0.650,-0.110,-33.188,-2.875,5.062,0.470,9.760,0.780,26,0,0,1,0
9001,303.188,2.750,-85.375,0.193,0.355,0.275,2.350,10.150,0.270,1.850,0.390,-0.490,-32.875,-4.000,3.688,0.500,9.760,0.770,26,0,0,1,0
9009,302.938,2.875,-85.438,0.136,0.193,0.299,2.350,10.150,0.270,1.850,0.390,-0.490,-32.875,-4.000,3.688,0.520,9.760,0.770,26,0,0,1,0
9016,302.688,3.062,-85.438,0.014,0.073,0.300,1.760,9.640,0.260,1.230,-0.110,-0.500,-32.875,-4.000,3.688,0.550,9.760,0.770,26,0,0,1,0
9027,302.500,3.188,-85.438,-0.033,0.048,0.286,1.870,9.550,0.270,1.450,-0.160,-0.530,-32.875,-4.000,3.688,0.580,9.750,0.770,26,0,0,1,0
9038,302.375,3.375,-85.375,-0.044,-0.003,0.269,1.530,9.340,0.640,1.290,-0.200,-0.500,-32.875,-4.000,3.688,0.600,9.750,0.780,26,0,0,1,0
9048,302.250,3.500,-85.375,-0.071,-0.015,0.253,1.530,9.340,0.640,0.930,-0.410,-0.140,-32.875,-4.000,3.688,0.620,9.750,0.790,26,0,0,1,0
9056,302.125,3.625,-85.312,-0.110,0.004,0.252,0.580,9.230,1.390,-0.040,-0.520,0.600,-33.500,-1.062,3.875,0.620,9.750,0.790,26,0,0,1,0
9064,301.938,3.812,-85.188,-0.154,0.070,0.260,0.320,9.480,1.570,-0.320,-0.260,0.750,-33.500,-1.062,3.875,0.650,9.750,0.810,26,0,0,1,0
9072,301.938,3.812,-85.188,-0.189,0.145,0.280,0.440,9.740,1.480,-0.230,0.000,0.650,-33.500,-1.062,3.875,0.670,9.740,0.830,26,0,0,1,0
9082,301.688,3.938,-85.125,-0.203,0.228,0.329,0.620,9.780,1.300,-0.080,0.030,0.450,-33.500,-1.062,3.875,0.700,9.740,0.850,26,0,0,1,0
9093,301.438,4.125,-85.000,-0.216,0.308,0.400,0.670,9.580,0.900,-0.070,-0.150,0.030,-33.500,-1.062,3.875,0.740,9.730,0.870,26,0,0,1,0
9101,301.062,4.312,-84.812,-0.216,0.308,0.400,0.790,9.510,0.520,-0.070,-0.150,0.030,-34.000,-1.875,3.688,0.780,9.730,0.890,26,0,0,1,0
9108,300.625,4.562,-84.688,-0.216,0.338,0.448,0.790,9.510,0.520,0.010,-0.210,-0.360,-34.000,-1.875,3.688,0.780,9.730,0.890,26,0,0,1,0
9116,300.250,4.812,-84.562,-0.214,0.276,0.457,0.830,9.620,0.460,0.010,-0.100,-0.440,-34.000,-1.875,3.688,0.860,9.720,0.940,26,0,0,1,0
9126,299.875,5.062,-84.438,-0.226,0.197,0.481,-0.470,9.710,0.910,-0.560,-0.140,-0.270,-34.000,-1.875,3.688,0.910,9.710,0.960,26,0,0,1,0
9137,299.562,5.312,-84.312,-0.252,0.153,0.480,-1.280,9.900,0.940,-1.380,0.000,-0.040,-34.000,-1.875,3.688,0.940,9.710,0.980,26,0,0,1,0
9148,299.312,5.500,-84.188,-0.217,0.094,0.405,-1.280,9.900,0.940,-2.230,0.190,-0.040,-34.000,-1.875,3.688,0.940,9.710,0.980,26,0,0,1,0
9156,299.125,5.688,-84.062,-0.145,0.034,0.353,-2.490,9.790,0.900,-3.470,0.080,-0.100,-35.000,-2.188,3.000,0.980,9.700,1.000,26,0,0,1,0
9164,298.875,5.875,-84.000,-0.116,0.036,0.344,-2.620,9.810,0.920,-3.640,0.110,-0.080,-35.000,-2.188,3.000,1.010,9.700,1.010,26,0,0,1,0
9172,298.875,5.875,-84.000,-0.097,0.083,0.321,-2.420,9.910,0.840,-3.460,0.210,-0.170,-35.000,-2.188,3.000,1.040,9.690,1.020,26,0,0,1,0
9182,298.688,6.062,-83.938,-0.071,0.127,0.292,-1.900,10.020,0.660,-2.970,0.320,-0.370,-35.000,-2.188,3.000,1.060,9.690,1.030,26,0,0,1,0
9192,298.438,6.250,-83.875,-0.057,0.154,0.273,-0.510,10.010,0.790,-1.600,0.320,-0.240,-35.000,-2.188,3.000,1.090,9.690,1.030,26,0,0,1,0
9201,298.250,6.375,-83.875,-0.057,0.154,0.273,0.320,10.010,0.840,-1.600,0.320,-0.240,-35.250,-1.750,3.688,1.110,9.680,1.040,26,0,0,1,0
9209,298.000,6.500,-83.812,-0.091,0.205,0.253,0.320,10.010,0.840,-0.780,0.320,-0.200,-35.250,-1.750,3.688,1.130,9.680,1.060,26,0,0,1,0
9216,297.750,6.625,-83.688,-0.132,0.251,0.231,0.990,9.800,1.010,-0.130,0.110,-0.040,-35.250,-1.750,3.688,1.150,9.670,1.080,26,0,0,1,0
9226,297.500,6.688,-83.562,-0.152,0.263,0.225,1.470,9.580,1.010,0.320,-0.090,-0.060,-35.250,-1.750,3.688,1.160,9.670,1.100,26,0,0,1,0
9237,297.312,6.812,-83.500,-0.169,0.231,0.211,2.150,9.540,1.260,0.950,-0.220,0.150,-35.250,-1.750,3.688,1.180,9.660,1.120,26,0,0,1,0
9248,297.062,6.938,-83.375,-0.192,0.183,0.211,2.150,9.540,1.260,0.970,-0.120,0.140,-35.250,-1.750,3.688,1.180,9.660,1.120,26,0,0,1,0
9256,296.938,7.000,-83.250,-0.189,0.144,0.218,2.230,9.520,1.240,1.030,-0.140,0.100,-35.062,-0.875,2.688,1.200,9.660,1.130,26,0,0,1,0
9263,296.938,7.000,-83.250,-0.169,0.105,0.219,2.330,9.410,1.050,1.100,-0.240,-0.100,-35.062,-0.875,2.688,1.220,9.660,1.150,26,0,0,1,0
9272,296.750,7.125,-83.125,-0.159,0.061,0.229,2.300,9.320,0.960,1.050,-0.320,-0.200,-35.062,-0.875,2.688,1.240,9.650,1.170,26,0,0,1,0
9282,296.625,7.250,-83.062,-0.148,0.013,0.254,2.190,9.220,1.140,0.920,-0.420,-0.030,-35.062,-0.875,2.688,1.260,9.650,1.180,26,0,0,1,0
9293,296.438,7.375,-82.938,-0.147,-0.019,0.300,2.030,9.170,1.270,0.730,-0.460,0.070,-35.062,-0.875,2.688,1.290,9.640,1.190,26,0,0,1,0
9301,296.312,7.562,-82.875,-0.147,-0.019,0.300,1.600,9.440,1.530,0.730,-0.460,0.070,-36.500,-0.375,2.500,1.320,9.640,1.210,26,0,0,1,0
9309,296.188,7.750,-82.812,-0.157,-0.056,0.326,1.600,9.440,1.530,0.270,-0.190,0.310,-36.500,-0.375,2.500,1.320,9.640,1.210,26,0,0,1,0
9317,296.062,7.938,-82.688,-0.173,-0.072,0.337,1.470,9.490,1.540,0.110,-0.130,0.310,-36.500,-0.375,2.500,1.390,9.620,1.240,26,0,0,1,0
9327,295.875,8.125,-82.625,-0.184,-0.067,0.350,1.560,9.370,1.400,0.100,-0.140,0.200,-36.500,-0.375,2.500,1.420,9.610,1.260,26,0,0,1,0
9338,295.750,8.375,-82.500,-0.178,-0.057,0.362,1.730,9.580,1.630,0.130,-0.240,0.140,-36.500,-0.375,2.500,1.460,9.610,1.270,26,0,0,1,0
9349,295.562,8.562,-82.375,-0.180,-0.043,0.374,1.730,9.580,1.630,0.270,-0.030,0.350,-36.500,-0.375,2.500,1.460,9.610,1.270,26,0,0,1,0
9356,295.375,8.750,-82.312,-0.165,-0.016,0.374,1.750,9.850,1.670,0.250,0.250,0.380,-36.500,0.375,2.875,1.490,9.600,1.290,26,0,0,1,0
9364,295.375,8.750,-82.312,-0.122,0.023,0.349,1.800,10.040,1.620,0.270,0.440,0.320,-36.500,0.375,2.875,1.530,9.590,1.300,26,0,0,1,0
9372,295.188,8.938,-82.250,-0.050,0.029,0.292,1.600,9.640,1.270,0.040,0.050,-0.030,-36.500,0.375,2.875,1.550,9.590,1.300,26,0,0,1,0
9382,295.000,9.125,-82.188,-0.016,-0.011,0.233,1.400,9.380,1.230,-0.170,-0.200,-0.070,-36.500,0.375,2.875,1.580,9.580,1.310,26,0,0,1,0
9393,294.875,9.250,-82.188,-0.028,-0.023,0.192,1.330,9.310,1.200,-0.260,-0.260,-0.110,-36.500,0.375,2.875,1.590,9.580,1.310,26,0,0,1,0
9401,294.750,9.375,-82.188,-0.028,-0.023,0.192,1.350,9.370,1.170,-0.260,-0.260,-0.110,-36.500,0.375,2.875,1.610,9.580,1.310,26,0,0,1,0
9409,294.688,9.438,-82.125,-0.037,-0.038,0.175,1.350,9.370,1.170,-0.260,-0.200,-0.130,-35.562,-0.062,3.250,1.630,9.570,1.310,26,0,0,1,0
9417,294.625,9.562,-82.125,-0.047,-0.060,0.172,1.420,9.480,1.210,-0.200,-0.090,-0.100,-35.562,-0.062,3.250,1.640,9.570,1.320,26,0,0,1,0
9427,294.562,9.625,-82.062,-0.069,-0.057,0.170,1.400,9.630,1.340,-0.250,0.040,-0.140,-35.562,-0.062,3.250,1.660,9.570,1.330,26,0,0,1,0
9438,294.500,9.750,-82.062,-0.060,-0.016,0.168,1.690,9.590,1.290,-0.250,0.060,0.010,-35.562,-0.062,3.250,1.670,9.560,1.330,26,0,0,1,0
9448,294.375,9.812,-82.062,-0.037,0.038,0.158,1.690,9.590,1.290,0.010,0.020,-0.030,-35.562,-0.062,3.250,1.670,9.560,1.330,26,0,0,1,0
9456,294.312,9.875,-82.000,-0.040,0.072,0.137,1.800,9.530,1.330,0.110,-0.030,0.000,-35.875,0.875,2.500,1.680,9.560,1.330,26,0,0,1,0
9463,294.312,9.875,-82.000,-0.059,0.076,0.127,1.950,9.380,1.310,0.250,-0.170,-0.030,-35.875,0.875,2.500,1.700,9.560,1.340,26,0,0,1,0
9471,294.188,9.938,-81.938,-0.059,0.076,0.127,2.040,9.320,1.220,0.330,-0.230,-0.130,-35.875,0.875,2.500,1.710,9.560,1.350,26,0,0,1,0
9481,294.062,10.000,-81.875,-0.085,0.068,0.129,1.980,9.320,1.410,0.250,-0.220,0.040,-35.875,0.875,2.500,1.720,9.550,1.360,26,0,0,1,0
9491,294.000,10.125,-81.812,-0.113,0.047,0.141,1.940,9.370,1.480,0.200,-0.170,0.110,-35.875,0.875,2.500,1.730,9.550,1.370,26,0,0,1,0
9501,293.938,10.188,-81.750,-0.130,0.005,0.152,1.890,9.420,1.440,0.200,-0.170,0.110,-35.875,0.875,2.500,1.750,9.540,1.390,26,0,0,1,0
9508,293.875,10.250,-81.688,-0.136,-0.039,0.159,1.890,9.420,1.440,0.130,-0.110,0.050,-36.688,-0.062,2.062,1.750,9.540,1.390,26,0,0,1,0
9516,293.812,10.375,-81.625,-0.122,-0.067,0.161,1.920,9.440,1.490,0.150,-0.100,0.090,-36.688,-0.062,2.062,1.760,9.540,1.400,26,0,0,1,0
9526,293.750,10.500,-81.562,-0.096,-0.049,0.160,2.180,9.390,1.500,0.390,-0.140,0.090,-36.688,-0.062,2.062,1.780,9.530,1.400,26,0,0,1,0
9536,293.688,10.562,-81.500,-0.071,-0.049,0.158,2.230,9.360,1.600,0.420,-0.160,0.190,-36.688,-0.062,2.062,1.820,9.530,1.420,26,0,0,1,0
9547,293.625,10.688,-81.500,-0.059,-0.057,0.148,2.220,9.420,1.600,0.400,-0.100,0.180,-36.688,-0.062,2.062,1.820,9.530,1.420,26,0,0,1,0
9555,293.562,10.750,-81.438,-0.047,-0.046,0.140,2.150,9.450,1.590,0.320,-0.070,0.160,-36.250,-0.062,3.000,1.830,9.520,1.420,26,0,0,1,0
9562,293.562,10.750,-81.438,-0.047,-0.046,0.140,2.130,9.400,1.430,0.280,-0.120,0.010,-36.250,-0.062,3.000,1.840,9.520,1.420,26,0,0,1,0
9570,293.500,10.812,-81.438,-0.020,-0.034,0.125,2.140,9.410,1.260,0.280,-0.120,0.010,-36.250,-0.062,3.000,1.860,9.520,1.420,26,0,0,1,0
9580,293.438,10.938,-81.438,-0.028,-0.032,0.106,2.140,9.340,1.310,0.270,-0.170,-0.110,-36.250,-0.062,3.000,1.870,9.510,1.420,26,0,0,1,0
9590,293.438,11.000,-81.438,-0.034,-0.047,0.086,2.030,9.260,1.360,0.150,-0.250,-0.060,-36.250,-0.062,3.000,1.880,9.510,1.430,26,0,0,1,0
9600,293.375,11.062,-81.438,-0.037,-0.063,0.083,2.030,9.260,1.360,0.150,-0.250,-0.060,-36.250,-0.062,3.000,1.890,9.510,1.430,26,0,0,1,0
9608,293.375,11.125,-81.375,-0.046,-0.068,0.091,1.980,9.340,1.410,0.080,-0.160,-0.010,-37.062,-1.250,2.188,1.890,9.510,1.430,26,0,0,1,0
9616,293.375,11.188,-81.375,-0.059,-0.076,0.099,1.930,9.380,1.410,0.030,-0.120,-0.020,-37.062,-1.250,2.188,1.900,9.510,1.430,26,0,0,1,0
9623,293.375,11.188,-81.375,-0.067,-0.080,0.108,1.900,9.440,1.340,-0.010,-0.060,-0.100,-37.062,-1.250,2.188,1.910,9.500,1.440,26,0,0,1,0
9632,293.312,11.250,-81.312,-0.060,-0.068,0.106,1.950,9.440,1.390,0.020,-0.050,-0.040,-37.062,-1.250,2.188,1.920,9.500,1.440,26,0,0,1,0
9641,293.312,11.312,-81.312,-0.060,-0.068,0.106,2.060,9.510,1.270,0.130,0.010,-0.170,-37.062,-1.250,2.188,1.930,9.500,1.450,26,0,0,1,0
9651,293.312,11.375,-81.312,-0.045,-0.037,0.087,2.090,9.450,1.350,0.130,0.010,-0.170,-37.062,-1.250,2.188,1.940,9.500,1.440,26,0,0,1,0
9659,293.250,11.375,-81.312,-0.008,-0.010,0.070,2.090,9.450,1.350,0.140,-0.040,-0.080,-36.188,0.062,2.688,1.940,9.500,1.440,26,0,0,1,0
9666,293.188,11.438,-81.312,0.009,-0.002,0.059,2.110,9.310,1.290,0.160,-0.180,-0.150,-36.188,0.062,2.688,1.940,9.500,1.440,26,0,0,1,0
9674,293.188,11.438,-81.312,0.001,0.012,0.057,2.140,9.320,1.280,0.180,-0.170,-0.160,-36.188,0.062,2.688,1.950,9.490,1.440,26,0,0,1,0
9684,293.188,11.438,-81.312,-0.016,0.023,0.057,2.150,9.330,1.460,0.190,-0.160,0.010,-36.188,0.062,2.688,1.960,9.490,1.450,26,0,0,1,0
9693,293.125,11.500,-81.312,-0.025,0.032,0.059,2.180,9.320,1.510,0.220,-0.170,0.060,-36.188,0.062,2.688,1.960,9.490,1.450,26,0,0,1,0
9702,293.062,11.562,-81.250,-0.025,0.032,0.059,2.210,9.350,1.640,0.220,-0.170,0.060,-36.188,0.062,2.688,1.970,9.490,1.450,26,0,0,1,0
9709,293.000,11.562,-81.250,-0.027,0.027,0.061,2.210,9.350,1.640,0.240,-0.130,0.190,-36.688,0.250,3.188,1.970,9.490,1.450,26,0,0,1,0
9717,293.000,11.625,-81.250,-0.028,0.019,0.060,2.210,9.380,1.600,0.230,-0.110,0.140,-36.688,0.250,3.188,1.980,9.490,1.460,26,0,0,1,0
9727,292.938,11.625,-81.188,-0.019,0.000,0.056,2.230,9.400,1.490,0.240,-0.080,0.030,-36.688,0.250,3.188,1.990,9.490,1.460,26,0,0,1,0
9738,292.938,11.688,-81.188,-0.008,-0.013,0.045,2.240,9.370,1.370,0.200,-0.090,-0.100,-36.688,0.250,3.188,1.990,9.480,1.460,26,0,0,1,0
9748,292.875,11.688,-81.188,0.001,-0.014,0.037,2.240,9.370,1.370,0.240,-0.110,-0.080,-36.688,0.250,3.188,1.990,9.480,1.460,26,0,0,1,0
9756,292.875,11.750,-81.188,0.008,-0.012,0.028,2.260,9.370,1.420,0.260,-0.110,-0.030,-37.062,-1.562,3.875,2.000,9.480,1.460,26,0,0,1,0
9764,292.875,11.750,-81.188,0.010,-0.019,0.032,2.270,9.350,1.460,0.270,-0.130,0.000,-37.062,-1.562,3.875,2.000,9.480,1.460,26,0,0,1,0
9772,292.875,11.750,-81.250,0.010,-0.019,0.032,2.210,9.300,1.330,0.200,-0.170,-0.120,-37.062,-1.562,3.875,2.010,9.480,1.450,26,0,0,1,0
9781,292.812,11.812,-81.250,0.008,-0.037,0.039,2.140,9.310,1.460,0.120,-0.170,0.000,-37.062,-1.562,3.875,2.010,9.480,1.450,26,0,0,1,0
9790,292.812,11.875,-81.250,0.001,-0.056,0.044,2.050,9.330,1.480,0.030,-0.150,0.020,-37.062,-1.562,3.875,2.020,9.480,1.450,26,0,0,1,0
9800,292.812,11.875,-81.250,-0.008,-0.065,0.040,2.050,9.330,1.480,0.030,-0.150,0.020,-37.062,-1.562,3.875,2.020,9.480,1.450,26,0,0,1,0
9808,292.875,11.938,-81.250,-0.002,-0.070,0.033,2.000,9.380,1.520,-0.020,-0.100,0.070,-37.375,-0.750,3.188,2.020,9.480,1.450,26,0,0,1,0
9816,292.875,11.938,-81.250,0.004,-0.060,0.028,1.950,9.420,1.490,-0.070,-0.050,0.030,-37.375,-0.750,3.188,2.030,9.480,1.450,26,0,0,1,0
9824,292.875,11.938,-81.250,0.001,-0.057,0.023,1.950,9.470,1.410,-0.070,0.000,-0.030,-37.375,-0.750,3.188,2.030,9.480,1.450,26,0,0,1,0
9833,292.875,11.938,-81.250,-0.001,-0.046,0.020,2.020,9.450,1.430,-0.010,-0.020,-0.010,-37.375,-0.750,3.188,2.030,9.480,1.450,26,0,0,1,0
9842,292.875,11.938,-81.250,-0.001,-0.046,0.020,2.130,9.410,1.470,0.090,-0.060,0.020,-37.375,-0.750,3.188,2.040,9.480,1.450,26,0,0,1,0
9851,292.875,12.000,-81.250,-0.001,-0.039,0.019,2.120,9.400,1.480,0.090,-0.060,0.020,-37.375,-0.750,3.188,2.040,9.480,1.450,26,0,0,1,0
9859,292.875,12.000,-81.250,-0.004,-0.045,0.021,2.120,9.400,1.480,0.070,-0.070,0.030,-37.375,-1.375,3.875,2.040,9.480,1.450,26,0,0,1,0
9867,292.938,12.000,-81.250,-0.007,-0.058,0.025,1.980,9.420,1.510,-0.050,-0.050,0.060,-37.375,-1.375,3.875,2.040,9.480,1.440,26,0,0,1,0
9875,292.938,12.062,-81.250,-0.015,-0.067,0.027,1.880,9.370,1.460,-0.160,-0.100,0.010,-37.375,-1.375,3.875,2.040,9.470,1.440,26,0,0,1,0
9884,292.938,12.062,-81.250,-0.023,-0.051,0.027,1.850,9.420,1.460,-0.190,-0.050,0.010,-37.375,-1.375,3.875,2.050,9.470,1.450,26,0,0,1,0
9893,292.938,12.062,-81.250,-0.014,-0.035,0.022,1.900,9.440,1.430,-0.150,-0.030,-0.010,-37.375,-1.375,3.875,2.050,9.470,1.450,26,0,0,1,0
9902,292.938,12.062,-81.250,-0.014,-0.035,0.022,2.020,9.400,1.440,-0.150,-0.030,-0.010,-37.688,-0.750,3.562,2.050,9.470,1.450,26,0,0,1,0
9910,292.938,12.062,-81.250,0.001,-0.014,0.025,2.020,9.400,1.440,-0.030,-0.060,-0.010,-37.688,-0.750,3.562,2.050,9.470,1.450,26,0,0,1,0
9917,292.938,12.062,-81.250,0.007,0.007,0.026,2.290,9.400,1.410,0.230,-0.070,-0.030,-37.688,-0.750,3.562,2.050,9.470,1.450,26,0,0,1,0
9927,292.938,12.125,-81.250,0.000,0.007,0.035,2.270,9.360,1.410,0.210,-0.110,-0.030,-37.688,-0.750,3.562,2.060,9.470,1.450,26,0,0,1,0
9938,292.875,12.125,-81.250,-0.010,-0.002,0.044,2.110,9.380,1.510,0.100,-0.110,0.030,-37.688,-0.750,3.562,2.070,9.470,1.450,26,0,0,1,0
9949,292.875,12.188,-81.250,-0.019,-0.001,0.045,2.110,9.380,1.510,0.040,-0.080,0.060,-37.688,-0.750,3.562,2.070,9.470,1.450,26,0,0,1,0
9957,292.812,12.188,-81.250,-0.015,0.017,0.044,2.110,9.420,1.510,0.040,-0.040,0.060,-37.000,1.000,4.375,2.070,9.470,1.450,26,0,0,1,0
9964,292.812,12.188,-81.250,-0.004,0.027,0.044,2.080,9.400,1.490,0.000,-0.070,0.030,-37.000,1.000,4.375,2.070,9.470,1.450,26,0,0,1,0
9972,292.812,12.188,-81.250,-0.004,0.027,0.044,2.130,9.400,1.400,0.040,-0.070,-0.050,-37.000,1.000,4.375,2.080,9.470,1.450,26,0,0,1,0
9981,292.750,12.250,-81.250,-0.005,0.029,0.049,2.140,9.400,1.410,0.050,-0.070,-0.030,-37.000,1.000,4.375,2.080,9.470,1.450,26,0,0,1,0
9991,292.688,12.250,-81.250,-0.005,0.027,0.050,2.120,9.370,1.460,0.030,-0.090,0.000,-37.000,1.000,4.375,2.090,9.460,1.450,26,0,0,1,0
10001,292.688,12.250,-81.250,-0.009,0.015,0.049,2.120,9.370,1.460,0.030,-0.090,0.000,-37.000,1.000,4.375,2.090,9.460,1.450,26,0,0,1,0
10008,292.688,12.312,-81.188,-0.013,0.007,0.039,2.150,9.400,1.480,0.050,-0.060,0.020,-37.375,-0.188,3.500,2.090,9.460,1.450,26,0,0,1,0
10016,292.625,12.312,-81.188,-0.012,-0.002,0.044,2.140,9.430,1.540,0.040,-0.020,0.080,-37.375,-0.188,3.500,2.090,9.460,1.450,26,0,0,1,0
10024,292.625,12.312,-81.188,-0.015,-0.012,0.046,2.160,9.370,1.330,0.060,-0.090,-0.120,-37.375,-0.188,3.500,2.100,9.460,1.460,26,0,0,1,0
10034,292.625,12.375,-81.188,-0.016,-0.014,0.056,2.140,9.370,1.460,0.030,-0.080,0.000,-37.375,-0.188,3.500,2.100,9.460,1.460,26,0,0,1,0
10043,292.562,12.375,-81.188,-0.023,-0.016,0.060,2.130,9.390,1.480,0.010,-0.070,0.020,-37.375,-0.188,3.500,2.110,9.460,1.460,26,0,0,1,0
10052,292.562,12.438,-81.188,-0.023,-0.016,0.060,2.090,9.390,1.510,0.010,-0.070,0.020,-37.375,-0.188,3.500,2.120,9.460,1.460,26,0,0,1,0
10060,292.562,12.438,-81.188,-0.020,-0.014,0.062,2.090,9.390,1.510,-0.020,-0.060,0.050,-36.562,-0.500,2.688,2.120,9.460,1.460,26,0,0,1,0
10068,292.500,12.500,-81.188,-0.015,-0.019,0.059,2.010,9.390,1.460,-0.110,-0.060,0.000,-36.562,-0.500,2.688,2.120,9.460,1.460,26,0,0,1,0
10076,292.500,12.500,-81.125,-0.015,-0.023,0.057,2.030,9.410,1.350,-0.090,-0.030,-0.100,-36.562,-0.500,2.688,2.130,9.450,1.460,26,0,0,1,0
10087,292.500,12.562,-81.125,-0.013,-0.016,0.051,2.040,9.400,1.370,-0.090,-0.050,-0.090,-36.562,-0.500,2.688,2.130,9.450,1.460,26,0,0,1,0
10097,292.438,12.562,-81.125,-0.013,-0.017,0.045,2.150,9.350,1.470,0.010,-0.090,0.000,-36.562,-0.500,2.688,2.140,9.450,1.460,26,0,0,1,0
10104,292.438,12.562,-81.125,-0.013,-0.017,0.045,2.190,9.320,1.490,0.050,-0.120,0.020,-37.375,-0.188,3.875,2.140,9.450,1.460,26,0,0,1,0
10112,292.438,12.625,-81.125,-0.013,-0.023,0.041,2.210,9.390,1.490,0.050,-0.120,0.020,-37.375,-0.188,3.875,2.140,9.450,1.470,26,0,0,1,0
10120,292.438,12.625,-81.125,-0.023,-0.019,0.044,2.210,9.390,1.490,0.060,-0.060,0.020,-37.375,-0.188,3.875,2.150,9.450,1.470,26,0,0,1,0
10129,292.438,12.688,-81.125,-0.031,-0.024,0.048,2.100,9.380,1.550,0.000,-0.060,-0.020,-37.375,-0.188,3.875,2.150,9.450,1.470,26,0,0,1,0
10139,292.438,12.688,-81.062,-0.034,-0.024,0.045,2.170,9.380,1.480,-0.050,-0.070,0.070,-37.375,-0.188,3.875,2.160,9.450,1.470,26,0,0,1,0
10149,292.375,12.688,-81.062,-0.027,-0.012,0.043,2.170,9.380,1.480,0.010,-0.060,0.000,-37.375,-0.188,3.875,2.160,9.450,1.470,26,0,0,1,0
10157,292.375,12.750,-81.062,-0.025,-0.003,0.044,2.200,9.360,1.530,0.030,-0.080,0.050,-36.562,0.562,3.062,2.160,9.440,1.480,26,0,0,1,0
10165,292.375,12.750,-81.062,-0.023,-0.004,0.048,2.200,9.360,1.510,0.030,-0.080,0.030,-36.562,0.562,3.062,2.170,9.440,1.480,26,0,0,1,0
10172,292.375,12.750,-81.062,-0.023,-0.004,0.048,2.210,9.330,1.400,0.040,-0.110,-0.070,-36.562,0.562,3.062,2.170,9.440,1.480,26,0,0,1,0
10181,292.312,12.812,-81.062,-0.025,-0.005,0.049,2.230,9.360,1.430,0.050,-0.070,-0.050,-36.562,0.562,3.062,2.180,9.440,1.480,26,0,0,1,0
10191,292.312,12.812,-81.000,-0.027,-0.009,0.046,2.250,9.380,1.490,0.070,-0.060,0.000,-36.562,0.562,3.062,2.180,9.440,1.490,26,0,0,1,0
10201,292.312,12.812,-81.000,-0.033,-0.009,0.045,2.250,9.380,1.490,0.070,-0.060,0.000,-36.562,0.562,3.062,2.180,9.440,1.490,26,0,0,1,0
10209,292.250,12.875,-81.000,-0.023,-0.015,0.046,2.200,9.330,1.610,0.010,-0.100,0.120,-37.375,-0.500,2.250,2.180,9.440,1.490,26,0,0,1,0
10217,292.250,12.875,-81.000,-0.020,-0.023,0.044,2.160,9.340,1.540,-0.020,-0.090,0.050,-37.375,-0.500,2.250,2.190,9.440,1.490,26,0,0,1,0
10224,292.250,12.875,-81.000,-0.021,-0.025,0.039,2.130,9.360,1.460,-0.060,-0.070,-0.030,-37.375,-0.500,2.250,2.190,9.430,1.490,26,0,0,1,0
10233,292.250,12.938,-80.938,-0.024,-0.020,0.037,2.160,9.380,1.540,-0.030,-0.050,0.040,-37.375,-0.500,2.250,2.200,9.430,1.490,26,0,0,1,0
10243,292.250,12.938,-80.938,-0.024,-0.020,0.037,2.240,9.370,1.620,0.040,-0.060,0.120,-37.375,-0.500,2.250,2.200,9.430,1.490,26,0,0,1,0
10252,292.250,12.938,-80.938,-0.022,-0.028,0.035,2.250,9.370,1.580,0.040,-0.060,0.120,-37.375,-0.500,2.250,2.200,9.430,1.490,26,0,0,1,0
10260,292.250,13.000,-80.938,-0.020,-0.040,0.033,2.250,9.370,1.580,0.040,-0.060,0.080,-37.000,0.875,2.688,2.200,9.430,1.490,26,0,0,1,0
10267,292.250,13.000,-80.938,-0.020,-0.051,0.028,2.230,9.370,1.550,0.010,-0.050,0.050,-37.000,0.875,2.688,2.210,9.430,1.500,26,0,0,1,0
10275,292.250,13.000,-80.938,-0.021,-0.048,0.031,2.150,9.360,1.480,-0.060,-0.060,-0.010,-37.000,0.875,2.688,2.210,9.430,1.500,26,0,0,1,0
10284,292.250,13.000,-80.938,-0.023,-0.038,0.028,2.110,9.300,1.530,-0.100,-0.120,0.020,-37.000,0.875,2.688,2.210,9.430,1.500,26,0,0,1,0
10294,292.250,13.062,-80.938,-0.024,-0.031,0.027,2.150,9.310,1.550,-0.060,-0.110,0.040,-37.000,0.875,2.688,2.220,9.430,1.500,26,0,0,1,0
10303,292.250,13.062,-80.875,-0.024,-0.031,0.027,2.230,9.340,1.540,-0.060,-0.110,0.040,-37.000,0.875,2.688,2.220,9.430,1.500,26,0,0,1,0
10310,292.250,13.062,-80.875,-0.025,-0.012,0.027,2.230,9.340,1.540,0.010,-0.080,0.030,-38.500,0.062,3.875,2.220,9.430,1.500,26,0,0,1,0
10318,292.250,13.125,-80.875,-0.020,-0.004,0.034,2.340,9.410,1.500,0.110,-0.010,0.000,-38.500,0.062,3.875,2.220,9.430,1.500,26,0,0,1,0
10327,292.250,13.125,-80.875,-0.012,-0.009,0.036,2.340,9.390,1.440,0.110,-0.030,-0.060,-38.500,0.062,3.875,2.230,9.420,1.500,26,0,0,1,0
10338,292.188,13.125,-80.875,-0.010,-0.016,0.032,2.300,9.360,1.520,0.070,-0.060,0.010,-38.500,0.062,3.875,2.230,9.420,1.500,26,0,0,1,0
10348,292.188,13.125,-80.875,-0.009,-0.017,0.026,2.220,9.360,1.580,-0.010,-0.060,0.070,-38.500,0.062,3.875,2.230,9.420,1.500,26,0,0,1,0
10356,292.188,13.188,-80.875,-0.004,-0.025,0.024,2.070,9.360,1.530,-0.160,-0.060,0.020,-36.562,0.000,3.875,2.230,9.420,1.500,26,0,0,1,0
10363,292.188,13.188,-80.875,-0.004,-0.025,0.024,2.050,9.340,1.470,-0.160,-0.060,0.020,-36.562,0.000,3.875,2.240,9.420,1.500,26,0,0,1,0
10371,292.188,13.188,-80.875,-0.002,-0.024,0.015,2.100,9.330,1.420,-0.180,-0.080,-0.020,-36.562,0.000,3.875,2.240,9.420,1.500,26,0,0,1,0
10380,292.188,13.188,-80.875,-0.002,-0.010,0.014,2.320,9.320,1.530,-0.130,-0.080,-0.080,-36.562,0.000,3.875,2.240,9.420,1.500,26,0,0,1,0
10390,292.188,13.188,-80.875,-0.002,0.007,0.012,2.380,9.330,1.540,0.070,-0.100,0.020,-36.562,0.000,3.875,2.240,9.420,1.500,26,0,0,1,0
10401,292.188,13.188,-80.875,-0.003,0.010,0.013,2.430,9.330,1.580,0.140,-0.090,0.030,-36.562,0.000,3.875,2.240,9.420,1.500,26,0,0,1,0
10409,292.188,13.188,-80.875,-0.001,0.009,0.014,2.430,9.330,1.600,0.190,-0.080,0.070,-36.188,0.500,3.500,2.240,9.420,1.500,26,0,0,1,0
10420,292.188,13.188,-80.875,-0.003,0.001,0.016,2.380,9.330,1.430,0.180,-0.090,0.100,-36.188,0.500,3.500,2.240,9.420,1.500,26,0,0,1,0
10431,292.125,13.250,-80.875,-0.010,-0.009,0.020,2.360,9.320,1.570,0.130,-0.090,-0.070,-36.188,0.500,3.500,2.250,9.420,1.500,26,0,0,1,0
10441,292.188,13.250,-80.875,-0.011,-0.021,0.015,2.270,9.330,1.600,0.100,-0.100,0.060,-36.188,0.500,3.500,2.250,9.420,1.500,26,0,0,1,0
10451,292.188,13.250,-80.875,-0.010,-0.038,0.011,2.270,9.330,1.600,0.020,-0.080,0.090,-36.188,0.500,3.500,2.250,9.420,1.500,26,0,0,1,0
10459,292.188,13.250,-80.875,-0.016,-0.055,0.010,2.140,9.360,1.590,-0.100,-0.050,0.090,-37.375,0.500,3.875,2.250,9.420,1.500,26,0,0,1,0
10467,292.250,13.250,-80.875,-0.014,-0.056,0.003,2.100,9.320,1.470,-0.150,-0.100,-0.030,-37.375,0.500,3.875,2.250,9.420,1.500,26,0,0,1,0
10474,292.250,13.250,-80.875,-0.017,-0.051,0.002,2.130,9.360,1.400,-0.110,-0.060,-0.100,-37.375,0.500,3.875,2.250,9.420,1.500,26,0,0,1,0
10484,292.250,13.250,-80.875,-0.017,-0.038,0.001,2.210,9.380,1.470,-0.030,-0.030,-0.030,-37.375,0.500,3.875,2.250,9.420,1.510,26,0,0,1,0
10498,292.312,13.250,-80.875,-0.014,-0.028,0.007,2.280,9.350,1.460,0.020,-0.060,-0.040,-37.375,0.500,3.875,2.250,9.420,1.510,26,0,0,1,0
10505,292.312,13.250,-80.875,-0.009,-0.015,0.010,2.290,9.350,1.490,0.040,-0.070,-0.010,-37.000,-0.562,3.500,2.250,9.420,1.510,26,0,0,1,0
10515,292.312,13.250,-80.875,-0.009,-0.002,0.013,2.340,9.350,1.550,0.080,-0.070,0.040,-37.000,-0.562,3.500,2.250,9.420,1.510,26,0,0,1,0
10524,292.312,13.250,-80.875,-0.010,-0.003,0.013,2.370,9.320,1.470,0.110,-0.090,-0.030,-37.000,-0.562,3.500,2.250,9.420,1.510,26,0,0,1,0
10534,292.250,13.312,-80.875,-0.013,-0.003,0.016,2.330,9.340,1.540,0.070,-0.070,0.030,-37.000,-0.562,3.500,2.260,9.420,1.510,26,0,0,1,0
10543,292.250,13.312,-80.875,-0.013,-0.003,0.016,2.290,9.350,1.530,0.030,-0.060,0.020,-37.000,-0.562,3.500,2.260,9.420,1.510,26,0,0,1,0
10552,292.250,13.312,-80.812,-0.016,-0.004,0.017,2.250,9.340,1.530,0.030,-0.060,0.020,-37.000,-0.562,3.500,2.260,9.420,1.510,26,0,0,1,0
10560,292.250,13.312,-80.812,-0.016,-0.007,0.014,2.330,9.300,1.500,-0.010,-0.070,0.010,-36.562,-0.250,4.250,2.260,9.420,1.510,26,0,0,1,0
10571,292.250,13.312,-80.812,-0.013,-0.009,0.015,2.300,9.340,1.420,0.060,-0.110,0.000,-36.562,-0.250,4.250,2.260,9.410,1.510,26,0,0,1,0
10581,292.250,13.312,-80.812,-0.011,-0.007,0.011,2.310,9.360,1.500,0.040,-0.070,-0.090,-36.562,-0.250,4.250,2.260,9.410,1.510,26,0,0,1,0
10591,292.250,13.312,-80.812,-0.005,-0.009,0.012,2.280,9.380,1.510,0.040,-0.050,0.000,-36.562,-0.250,4.250,2.260,9.410,1.510,26,0,0,1,0
10602,292.250,13.375,-80.812,-0.001,-0.008,0.012,2.310,9.350,1.580,0.010,-0.030,0.000,-36.562,-0.250,4.250,2.270,9.410,1.510,26,0,0,1,0
10610,292.188,13.375,-80.812,-0.002,-0.005,0.011,2.350,9.320,1.520,0.040,-0.060,0.060,-37.000,-0.562,3.500,2.270,9.410,1.510,26,0,0,1,0
10621,292.188,13.375,-80.812,-0.001,-0.007,0.005,2.410,9.290,1.450,0.080,-0.090,0.010,-37.000,-0.562,3.500,2.270,9.410,1.510,26,0,0,1,0
10631,292.188,13.375,-80.812,-0.001,-0.002,0.005,2.360,9.280,1.480,0.140,-0.120,-0.060,-37.000,-0.562,3.500,2.270,9.410,1.510,26,0,0,1,0
10642,292.188,13.375,-80.812,-0.007,-0.009,0.010,2.280,9.300,1.570,0.080,-0.130,-0.020,-37.000,-0.562,3.500,2.270,9.410,1.510,26,0,0,1,0
10652,292.188,13.375,-80.812,-0.008,-0.016,0.007,2.250,9.370,1.570,0.010,-0.110,0.050,-37.000,-0.562,3.500,2.270,9.410,1.510,26,0,0,1,0
10660,292.250,13.375,-80.812,-0.010,-0.021,0.002,2.260,9.350,1.590,-0.010,-0.040,0.050,-36.188,-1.250,3.500,2.270,9.410,1.510,26,0,0,1,0
10670,292.250,13.375,-80.812,-0.008,-0.015,-0.002,2.310,9.320,1.470,-0.010,-0.060,0.070,-36.188,-1.250,3.500,2.270,9.410,1.510,26,0,0,1,0
10681,292.250,13.375,-80.812,-0.003,-0.013,-0.004,2.330,9.290,1.490,0.040,-0.090,-0.040,-36.188,-1.250,3.500,2.270,9.410,1.510,26,0,0,1,0
10691,292.250,13.375,-80.812,-0.001,-0.014,-0.004,2.370,9.280,1.570,0.060,-0.110,-0.010,-36.188,-1.250,3.500,2.270,9.410,1.510,26,0,0,1,0
10702,292.250,13.375,-80.812,0.000,-0.016,0.000,2.370,9.290,1.590,0.100,-0.120,0.050,-36.188,-1.250,3.500,2.270,9.410,1.510,26,0,0,1,0
10710,292.250,13.375,-80.812,-0.003,-0.021,-0.002,2.260,9.340,1.570,0.100,-0.110,0.080,-37.000,0.500,3.875,2.270,9.410,1.510,26,0,0,1,0
10720,292.250,13.375,-80.812,-0.001,-0.021,-0.002,2.280,9.350,1.490,-0.010,-0.070,0.050,-37.000,0.500,3.875,2.270,9.410,1.510,26,0,0,1,0
10731,292.250,13.375,-80.812,0.004,-0.021,-0.002,2.300,9.340,1.500,0.000,-0.060,-0.010,-37.000,0.500,3.875,2.270,9.410,1.510,26,0,0,1,0
10741,292.312,13.375,-80.812,0.004,-0.013,-0.003,2.280,9.330,1.600,0.030,-0.070,-0.010,-37.000,0.500,3.875,2.270,9.410,1.510,26,0,0,1,0
10752,292.250,13.375,-80.812,0.008,0.001,-0.002,2.280,9.320,1.570,0.010,-0.080,0.090,-37.000,0.500,3.875,2.270,9.410,1.510,26,0,0,1,0
10760,292.250,13.375,-80.812,0.008,-0.004,-0.005,2.250,9.330,1.590,0.010,-0.080,0.050,-37.000,-0.250,3.500,2.270,9.410,1.510,26,0,0,1,0
10771,292.250,13.375,-80.812,0.008,-0.007,-0.007,2.210,9.340,1.430,-0.020,-0.080,0.070,-37.000,-0.250,3.500,2.270,9.410,1.510,26,0,0,1,0
10781,292.250,13.375,-80.812,0.007,0.001,-0.007,2.280,9.360,1.510,-0.050,-0.070,-0.070,-37.000,-0.250,3.500,2.270,9.410,1.510,26,0,0,1,0
10791,292.250,13.375,-80.812,0.008,0.008,-0.007,2.360,9.360,1.500,0.010,-0.050,0.000,-37.000,-0.250,3.500,2.270,9.410,1.510,26,0,0,1,0
10802,292.250,13.375,-80.812,0.010,0.015,-0.008,2.370,9.330,1.550,0.080,-0.050,0.000,-37.000,-0.250,3.500,2.270,9.410,1.510,26,0,0,1,0
10810,292.250,13.375,-80.812,0.012,0.012,-0.001,2.360,9.320,1.610,0.090,-0.080,0.040,-37.000,0.500,3.500,2.270,9.410,1.510,26,0,0,1,0
10821,292.250,13.375,-80.812,0.012,0.010,0.002,2.260,9.310,1.510,0.080,-0.080,0.100,-37.000,0.500,3.500,2.270,9.410,1.510,26,0,0,1,0
10831,292.250,13.375,-80.812,0.007,0.000,0.000,2.220,9.300,1.540,-0.010,-0.100,0.000,-37.000,0.500,3.500,2.270,9.410,1.510,26,0,0,1,0
10841,292.250,13.375,-80.812,0.005,-0.002,-0.007,2.240,9.330,1.560,-0.040,-0.100,0.020,-37.000,0.500,3.500,2.270,9.410,1.510,26,0,0,1,0
10852,292.250,13.375,-80.812,0.004,-0.002,-0.010,2.370,9.370,1.580,-0.030,-0.080,0.040,-37.000,0.500,3.500,2.270,9.410,1.510,26,0,0,1,0
10861,292.250,13.375,-80.812,0.005,0.002,-0.011,2.370,9.320,1.560,0.090,-0.040,0.070,-37.000,1.562,3.188,2.270,9.410,1.510,26,0,0,1,0
10871,292.250,13.375,-80.812,0.009,0.005,-0.005,2.370,9.330,1.520,0.090,-0.090,0.040,-37.000,1.562,3.188,2.270,9.410,1.510,26,0,0,1,0
10882,292.250,13.375,-80.812,0.009,0.009,-0.001,2.350,9.320,1.490,0.090,-0.080,0.000,-37.000,1.562,3.188,2.270,9.410,1.510,26,0,0,1,0
10892,292.250,13.375,-80.812,0.008,0.005,-0.001,2.260,9.340,1.540,0.080,-0.080,-0.010,-37.000,1.562,3.188,2.270,9.410,1.510,26,0,0,1,0
10902,292.250,13.375,-80.812,0.001,0.001,-0.004,2.260,9.330,1.560,-0.010,-0.070,0.020,-37.000,1.562,3.188,2.270,9.410,1.510,26,0,0,1,0
10911,292.250,13.375,-80.812,0.005,-0.011,-0.004,2.300,9.350,1.570,0.000,-0.080,0.050,-37.375,-0.250,3.500,2.270,9.410,1.510,26,0,0,1,0
10922,292.250,13.375,-80.812,0.007,-0.014,-0.007,2.260,9.390,1.500,0.020,-0.060,0.060,-37.375,-0.250,3.500,2.270,9.410,1.510,26,0,0,1,0
10932,292.312,13.375,-80.812,0.007,-0.020,-0.007,2.210,9.370,1.500,-0.010,-0.020,0.000,-37.375,-0.250,3.500,2.270,9.410,1.510,26,0,0,1,0
10942,292.312,13.375,-80.875,0.005,-0.016,-0.007,2.170,9.380,1.470,-0.050,-0.040,0.000,-37.375,-0.250,3.500,2.270,9.410,1.510,26,0,0,1,0
10952,292.312,13.375,-80.875,0.008,-0.013,-0.007,2.160,9.340,1.510,-0.100,-0.030,-0.030,-37.375,-0.250,3.500,2.270,9.410,1.510,26,0,0,1,0
10961,292.312,13.375,-80.875,0.012,-0.010,-0.008,2.280,9.330,1.480,-0.100,-0.070,0.000,-37.375,0.500,2.688,2.270,9.410,1.500,26,0,0,1,0
10971,292.312,13.375,-80.875,0.012,-0.003,-0.009,2.320,9.360,1.410,0.000,-0.080,-0.020,-37.375,0.500,2.688,2.270,9.410,1.500,26,0,0,1,0
10982,292.312,13.375,-80.875,0.013,0.003,-0.005,2.330,9.390,1.450,0.050,-0.050,-0.090,-37.375,0.500,2.688,2.270,9.410,1.500,26,0,0,1,0
10992,292.312,13.375,-80.875,0.011,0.008,-0.001,2.340,9.400,1.490,0.050,-0.020,-0.050,-37.375,0.500,2.688,2.270,9.410,1.500,26,0,0,1,0
11002,292.312,13.375,-80.875,0.005,0.009,0.005,2.290,9.390,1.540,0.070,-0.010,0.000,-37.375,-1.000,3.500,2.270,9.410,1.500,26,0,0,1,0
11011,292.312,13.375,-80.875,0.004,0.013,0.004,2.240,9.350,1.510,0.010,-0.020,0.030,-37.375,-1.000,3.500,2.270,9.410,1.500,26,0,0,1,0
11022,292.312,13.375,-80.875,0.008,0.017,0.002,2.250,9.370,1.410,-0.020,-0.060,0.000,-37.375,-1.000,3.500,2.270,9.410,1.500,26,0,0,1,0
11032,292.250,13.375,-80.875,0.009,0.011,0.001,2.260,9.350,1.510,-0.020,-0.040,-0.090,-37.375,-1.000,3.500,2.270,9.410,1.500,26,0,0,1,0
11042,292.250,13.375,-80.875,0.013,0.011,-0.002,2.240,9.330,1.500,-0.010,-0.060,0.000,-37.375,-1.000,3.500,2.270,9.410,1.500,26,0,0,1,0
11052,292.250,13.375,-80.875,0.013,0.004,-0.001,2.250,9.340,1.520,-0.020,-0.080,0.000,-37.375,-1.000,3.500,2.270,9.410,1.500,26,0,0,1,0
11061,292.250,13.375,-80.875,0.012,0.003,-0.001,2.240,9.320,1.530,-0.020,-0.070,0.020,-36.188,-0.562,2.688,2.270,9.410,1.500,26,0,0,1,0
11071,292.250,13.375,-80.875,0.010,-0.003,-0.004,2.240,9.320,1.420,-0.030,-0.090,0.030,-36.188,-0.562,2.688,2.270,9.410,1.500,26,0,0,1,0
11082,292.250,13.375,-80.875,0.010,-0.007,-0.007,2.260,9.320,1.450,-0.030,-0.090,-0.070,-36.188,-0.562,2.688,2.270,9.410,1.500,26,0,0,1,0
11092,292.250,13.375,-80.875,0.011,-0.010,-0.005,2.270,9.330,1.440,0.000,-0.080,-0.050,-36.188,-0.562,2.688,2.270,9.410,1.500,26,0,0,1,0
11103,292.250,13.375,-80.875,0.010,-0.009,-0.008,2.330,9.380,1.480,0.000,-0.080,-0.050,-37.375,0.062,3.188,2.270,9.410,1.500,26,0,0,1,0
11112,292.250,13.375,-80.875,0.012,-0.008,-0.005,2.290,9.340,1.420,0.050,-0.030,-0.010,-37.375,0.062,3.188,2.270,9.420,1.500,26,0,0,1,0
11122,292.250,13.375,-80.938,0.013,-0.014,-0.003,2.280,9.330,1.360,0.010,-0.070,-0.070,-37.375,0.062,3.188,2.270,9.420,1.500,26,0,0,1,0
11132,292.250,13.375,-80.938,0.015,-0.010,-0.002,2.240,9.330,1.430,0.000,-0.080,-0.130,-37.375,0.062,3.188,2.270,9.420,1.490,26,0,0,1,0
11142,292.250,13.375,-80.938,0.014,-0.005,0.000,2.250,9.410,1.500,-0.030,-0.080,-0.060,-37.375,0.062,3.188,2.270,9.420,1.490,26,0,0,1,0
11153,292.250,13.375,-80.938,0.012,0.000,-0.001,2.180,9.400,1.540,-0.020,0.000,0.010,-37.375,0.062,3.188,2.270,9.420,1.490,26,0,0,1,0
11161,292.250,13.375,-80.938,0.013,-0.001,0.002,2.210,9.380,1.520,-0.080,-0.020,0.040,-37.688,0.500,3.188,2.270,9.420,1.490,26,0,0,1,0
11172,292.250,13.375,-80.938,0.016,0.003,0.001,2.190,9.360,1.460,-0.050,-0.040,0.030,-37.688,0.500,3.188,2.270,9.420,1.490,26,0,0,1,0
11182,292.250,13.375,-80.938,0.012,0.007,0.000,2.220,9.320,1.510,-0.070,-0.050,-0.020,-37.688,0.500,3.188,2.270,9.420,1.490,26,0,0,1,0
11192,292.250,13.375,-80.938,0.015,0.002,0.001,2.290,9.330,1.470,-0.050,-0.090,0.020,-37.688,0.500,3.188,2.270,9.420,1.490,26,0,0,1,0
11203,292.250,13.375,-81.000,0.014,-0.007,0.000,2.310,9.340,1.520,0.020,-0.080,-0.020,-36.562,0.062,4.688,2.270,9.420,1.490,26,0,0,1,0
11212,292.250,13.375,-81.000,0.012,-0.012,0.000,2.300,9.390,1.500,0.030,-0.070,0.030,-36.562,0.062,4.688,2.270,9.420,1.480,26,0,0,1,0
11222,292.250,13.375,-81.000,0.012,-0.013,-0.002,2.330,9.350,1.410,0.020,-0.030,0.010,-36.562,0.062,4.688,2.270,9.420,1.480,26,0,0,1,0
11232,292.250,13.375,-81.000,0.010,-0.024,0.000,2.320,9.340,1.440,0.050,-0.060,-0.070,-36.562,0.062,4.688,2.270,9.420,1.480,26,0,0,1,0
11242,292.312,13.375,-81.000,0.007,-0.026,0.004,2.280,9.320,1.500,0.040,-0.070,-0.040,-36.562,0.062,4.688,2.270,9.420,1.480,26,0,0,1,0
11253,292.312,13.375,-81.000,0.004,-0.028,0.005,2.280,9.320,1.500,0.000,-0.090,0.020,-36.562,0.062,4.688,2.270,9.420,1.480,26,0,0,1,0
11260,292.312,13.375,-81.000,0.004,-0.033,0.005,2.190,9.350,1.450,-0.080,-0.060,-0.030,-36.188,-0.562,3.500,2.270,9.420,1.480,26,0,0,1,0
11268,292.312,13.375,-81.000,0.004,-0.036,0.004,2.160,9.350,1.470,-0.100,-0.060,0.000,-36.188,-0.562,3.500,2.270,9.420,1.480,26,0,0,1,0
11277,292.375,13.375,-81.000,0.005,-0.038,0.000,2.160,9.390,1.370,-0.110,-0.030,-0.100,-36.188,-0.562,3.500,2.270,9.420,1.480,26,0,0,1,0
11287,292.375,13.438,-81.000,0.004,-0.039,0.000,2.180,9.390,1.390,-0.090,-0.020,-0.080,-36.188,-0.562,3.500,2.270,9.420,1.480,26,0,0,1,0
11297,292.375,13.438,-81.000,0.003,-0.035,0.002,2.240,9.380,1.470,-0.030,-0.040,-0.010,-36.188,-0.562,3.500,2.270,9.420,1.480,26,0,0,1,0
11305,292.375,13.438,-81.000,0.003,-0.035,0.002,2.260,9.350,1.520,-0.010,-0.060,0.040,-36.562,0.500,4.688,2.280,9.420,1.480,26,0,0,1,0
11313,292.375,13.438,-81.000,0.008,-0.035,0.002,2.260,9.350,1.520,-0.010,-0.060,0.040,-36.562,0.500,4.688,2.280,9.420,1.480,26,0,0,1,0
11320,292.438,13.438,-81.062,0.009,-0.036,0.007,2.230,9.360,1.460,-0.040,-0.060,-0.010,-36.562,0.500,4.688,2.280,9.420,1.480,26,0,0,1,0
11331,292.438,13.438,-81.062,0.005,-0.035,0.003,2.240,9.320,1.410,-0.030,-0.080,-0.070,-36.562,0.500,4.688,2.280,9.420,1.470,26,0,0,1,0
11341,292.438,13.438,-81.062,0.001,-0.031,0.001,2.250,9.340,1.460,-0.030,-0.090,-0.060,-36.562,0.500,4.688,2.280,9.420,1.470,26,0,0,1,0
11352,292.438,13.438,-81.062,-0.005,-0.026,-0.001,2.250,9.340,1.460,-0.020,-0.070,-0.010,-36.562,0.500,4.688,2.280,9.420,1.470,26,0,0,1,0
11361,292.500,13.438,-81.062,0.000,-0.020,0.001,2.350,9.350,1.400,0.020,-0.060,0.000,-37.000,0.500,3.875,2.280,9.420,1.470,26,0,0,1,0
11371,292.500,13.438,-81.062,0.005,-0.021,0.002,2.350,9.330,1.340,0.060,-0.060,-0.070,-37.000,0.500,3.875,2.280,9.420,1.470,26,0,0,1,0
11382,292.500,13.438,-81.062,0.008,-0.021,0.002,2.340,9.340,1.330,0.060,-0.080,-0.130,-37.000,0.500,3.875,2.280,9.420,1.470,26,0,0,1,0
11392,292.500,13.438,-81.062,0.010,-0.022,0.001,2.330,9.360,1.430,0.060,-0.070,-0.140,-37.000,0.500,3.875,2.280,9.420,1.470,26,0,0,1,0
11403,292.500,13.438,-81.062,0.004,-0.016,0.001,2.310,9.340,1.460,0.050,-0.060,-0.040,-37.000,0.500,3.875,2.280,9.420,1.470,26,0,0,1,0
11412,292.500,13.438,-81.062,0.005,-0.016,0.000,2.310,9.310,1.420,0.030,-0.070,-0.010,-37.375,0.062,3.875,2.280,9.420,1.470,26,0,0,1,0
11423,292.500,13.438,-81.062,0.004,-0.020,0.001,2.270,9.290,1.340,0.030,-0.100,-0.050,-37.375,0.062,3.875,2.280,9.420,1.470,26,0,0,1,0
11433,292.562,13.438,-81.062,0.003,-0.020,-0.002,2.280,9.350,1.420,0.000,-0.120,-0.130,-37.375,0.062,3.875,2.280,9.420,1.470,26,0,0,1,0
11443,292.562,13.438,-81.062,0.001,-0.017,-0.001,2.290,9.370,1.460,0.000,-0.060,-0.050,-37.375,0.062,3.875,2.280,9.420,1.470,26,0,0,1,0
11453,292.562,13.438,-81.062,0.000,-0.016,-0.001,2.310,9.370,1.470,0.010,-0.040,0.000,-37.375,0.062,3.875,2.280,9.420,1.470,26,0,0,1,0
11462,292.562,13.438,-81.062,-0.001,-0.009,-0.004,2.310,9.340,1.450,0.030,-0.050,0.000,-37.375,0.875,4.250,2.280,9.420,1.470,26,0,0,1,0
11472,292.562,13.438,-81.062,0.007,-0.016,-0.007,2.320,9.310,1.260,0.030,-0.070,-0.010,-37.375,0.875,4.250,2.280,9.420,1.470,26,0,0,1,0
11483,292.562,13.438,-81.062,0.010,-0.021,-0.005,2.340,9.330,1.360,0.030,-0.100,-0.210,-37.375,0.875,4.250,2.280,9.420,1.470,26,0,0,1,0
11493,292.562,13.438,-81.062,0.010,-0.022,-0.008,2.350,9.370,1.400,0.050,-0.080,-0.100,-37.375,0.875,4.250,2.280,9.420,1.470,26,0,0,1,0
11503,292.562,13.438,-81.062,0.008,-0.023,-0.007,2.350,9.370,1.400,0.060,-0.050,-0.070,-37.375,0.875,4.250,2.280,9.420,1.470,26,0,0,1,0
11511,292.625,13.438,-81.062,0.004,-0.026,-0.008,2.290,9.330,1.480,0.000,-0.080,0.010,-37.000,0.875,4.688,2.280,9.420,1.470,26,0,0,1,0
11519,292.625,13.438,-81.062,0.003,-0.023,-0.009,2.300,9.300,1.440,0.020,-0.110,-0.020,-37.000,0.875,4.688,2.280,9.420,1.470,26,0,0,1,0
11528,292.625,13.438,-81.062,0.000,-0.022,-0.013,2.280,9.330,1.350,0.000,-0.080,-0.120,-37.000,0.875,4.688,2.280,9.420,1.470,26,0,0,1,0
11539,292.625,13.438,-81.125,0.000,-0.022,-0.013,2.320,9.370,1.390,0.040,-0.050,-0.070,-37.000,0.875,4.688,2.280,9.420,1.470,26,0,0,1,0
11550,292.688,13.438,-81.125,0.003,-0.021,-0.010,2.320,9.360,1.410,0.030,-0.050,-0.050,-37.000,0.875,4.688,2.280,9.420,1.470,26,0,0,1,0
11557,292.688,13.438,-81.125,0.004,-0.021,-0.013,2.320,9.330,1.430,0.040,-0.080,-0.030,-36.562,0.875,4.688,2.280,9.420,1.470,26,0,0,1,0
11567,292.688,13.438,-81.125,0.008,-0.025,-0.013,2.300,9.320,1.420,0.010,-0.090,-0.040,-36.562,0.875,4.688,2.280,9.420,1.460,26,0,0,1,0
11577,292.688,13.438,-81.125,0.010,-0.027,-0.013,2.270,9.330,1.330,0.000,-0.090,-0.130,-36.562,0.875,4.688,2.280,9.420,1.460,26,0,0,1,0
11587,292.688,13.438,-81.125,0.008,-0.026,-0.014,2.210,9.340,1.380,-0.060,-0.070,-0.070,-36.562,0.875,4.688,2.280,9.420,1.460,26,0,0,1,0
11597,292.750,13.438,-81.125,0.001,-0.021,-0.016,2.210,9.350,1.360,-0.060,-0.070,-0.100,-36.562,0.875,4.688,2.280,9.420,1.460,26,0,0,1,0
11605,292.750,13.438,-81.125,0.004,-0.021,-0.020,2.250,9.340,1.490,-0.020,-0.070,0.020,-37.000,0.875,3.188,2.270,9.420,1.460,26,0,0,1,0
11615,292.750,13.438,-81.125,0.004,-0.021,-0.020,2.260,9.390,1.340,-0.010,-0.030,-0.120,-37.000,0.875,3.188,2.270,9.420,1.460,26,0,0,1,0
11625,292.812,13.375,-81.125,0.009,-0.021,-0.017,2.290,9.370,1.280,0.020,-0.040,-0.170,-37.000,0.875,3.188,2.270,9.420,1.460,26,0,0,1,0
11635,292.812,13.375,-81.125,0.009,-0.022,-0.021,2.300,9.390,1.360,0.020,-0.030,-0.090,-37.000,0.875,3.188,2.270,9.420,1.460,26,0,0,1,0
11645,292.812,13.375,-81.125,0.007,-0.019,-0.020,2.280,9.360,1.430,0.010,-0.060,-0.020,-37.000,0.875,3.188,2.270,9.420,1.460,26,0,0,1,0
11654,292.875,13.375,-81.125,0.000,-0.015,-0.017,2.360,9.320,1.430,0.010,-0.060,-0.020,-37.000,-1.000,4.250,2.270,9.420,1.460,26,0,0,1,0
11663,292.875,13.375,-81.125,0.001,-0.016,-0.019,2.340,9.360,1.390,0.080,-0.090,-0.020,-37.000,-1.000,4.250,2.270,9.420,1.460,26,0,0,1,0
11673,292.875,13.375,-81.125,0.000,-0.019,-0.019,2.340,9.400,1.320,0.070,-0.060,-0.060,-37.000,-1.000,4.250,2.260,9.420,1.460,26,0,0,1,0
11683,292.875,13.375,-81.125,0.002,-0.015,-0.015,2.310,9.400,1.340,0.070,-0.010,-0.140,-37.000,-1.000,4.250,2.260,9.420,1.460,26,0,0,1,0
11693,292.938,13.312,-81.125,0.007,-0.022,-0.017,2.280,9.340,1.400,0.040,-0.020,-0.110,-37.000,-1.000,4.250,2.260,9.420,1.460,26,0,0,1,0
11704,292.938,13.312,-81.125,0.003,-0.027,-0.016,2.280,9.340,1.400,0.010,-0.080,-0.060,-37.000,-1.000,4.250,2.260,9.420,1.460,26,0,0,1,0
11711,292.938,13.312,-81.125,0.002,-0.025,-0.017,2.300,9.350,1.450,0.040,-0.070,-0.010,-37.688,-1.000,4.250,2.260,9.420,1.460,26,0,0,1,0
11719,293.000,13.312,-81.125,-0.001,-0.023,-0.015,2.250,9.350,1.510,0.000,-0.070,0.050,-37.688,-1.000,4.250,2.260,9.420,1.460,26,0,0,1,0
11729,293.000,13.312,-81.125,-0.002,-0.023,-0.014,2.260,9.320,1.350,0.000,-0.100,-0.110,-37.688,-1.000,4.250,2.260,9.420,1.460,26,0,0,1,0
11739,293.000,13.312,-81.188,0.001,-0.021,-0.015,2.250,9.330,1.390,0.000,-0.090,-0.060,-37.688,-1.000,4.250,2.260,9.420,1.460,26,0,0,1,0
11750,293.062,13.312,-81.188,0.001,-0.021,-0.012,2.300,9.340,1.390,0.040,-0.080,-0.060,-37.688,-1.000,4.250,2.260,9.420,1.460,26,0,0,1,0
11758,293.062,13.312,-81.188,-0.003,-0.021,-0.011,2.280,9.360,1.480,0.020,-0.060,0.020,-37.375,-0.250,4.250,2.260,9.430,1.460,26,0,0,1,0
11767,293.062,13.312,-81.188,-0.002,-0.022,-0.013,2.270,9.360,1.380,0.010,-0.060,-0.070,-37.375,-0.250,4.250,2.250,9.430,1.460,26,0,0,1,0
11777,293.062,13.312,-81.188,0.002,-0.026,-0.020,2.230,9.350,1.280,-0.020,-0.070,-0.170,-37.375,-0.250,4.250,2.250,9.430,1.450,26,0,0,1,0
11787,293.125,13.312,-81.188,0.004,-0.027,-0.016,2.210,9.380,1.350,-0.040,-0.040,-0.100,-37.375,-0.250,4.250,2.250,9.430,1.450,26,0,0,1,0
11797,293.125,13.250,-81.188,0.002,-0.024,-0.014,2.190,9.370,1.400,-0.050,-0.050,-0.050,-37.375,-0.250,4.250,2.250,9.430,1.450,26,0,0,1,0
11805,293.125,13.250,-81.188,0.002,-0.024,-0.014,2.160,9.390,1.440,-0.080,-0.030,-0.010,-37.375,0.062,4.250,2.250,9.430,1.450,26,0,0,1,0
11815,293.125,13.250,-81.188,-0.002,-0.022,-0.011,2.160,9.390,1.410,-0.080,-0.030,-0.040,-37.375,0.062,4.250,2.250,9.430,1.450,26,0,0,1,0
11825,293.188,13.250,-81.188,-0.007,-0.017,-0.010,2.180,9.380,1.330,-0.060,-0.050,-0.120,-37.375,0.062,4.250,2.250,9.430,1.450,26,0,0,1,0
11835,293.188,13.250,-81.188,-0.008,-0.012,-0.009,2.160,9.390,1.380,-0.090,-0.030,-0.060,-37.375,0.062,4.250,2.250,9.430,1.450,26,0,0,1,0
11845,293.188,13.250,-81.188,-0.010,-0.005,-0.007,2.160,9.390,1.370,-0.080,-0.040,-0.070,-37.375,0.062,4.250,2.250,9.430,1.450,26,0,0,1,0
11854,293.188,13.250,-81.188,-0.005,0.003,-0.004,2.180,9.360,1.410,-0.080,-0.040,-0.070,-37.375,0.500,4.688,2.250,9.430,1.450,26,0,0,1,0
11863,293.188,13.250,-81.188,0.000,0.004,-0.005,2.200,9.350,1.400,-0.060,-0.060,-0.040,-37.375,0.500,4.688,2.250,9.430,1.450,26,0,0,1,0
11873,293.188,13.250,-81.188,0.003,0.010,-0.003,2.190,9.370,1.290,-0.050,-0.070,-0.050,-37.375,0.500,4.688,2.250,9.430,1.450,26,0,0,1,0
11884,293.188,13.250,-81.188,0.005,0.011,-0.002,2.180,9.360,1.350,-0.050,-0.060,-0.160,-37.375,0.500,4.688,2.250,9.430,1.450,26,0,0,1,0
11894,293.188,13.250,-81.188,0.005,0.009,-0.002,2.180,9.320,1.370,-0.070,-0.100,-0.070,-37.375,0.500,4.688,2.250,9.430,1.450,26,0,0,1,0
11904,293.188,13.250,-81.188,0.002,0.005,-0.004,2.260,9.340,1.460,-0.070,-0.100,-0.070,-37.000,0.062,5.062,2.250,9.430,1.450,26,0,0,1,0
11913,293.188,13.250,-81.188,-0.001,0.008,-0.004,2.260,9.360,1.410,0.000,-0.080,0.000,-37.000,0.062,5.062,2.250,9.430,1.450,26,0,0,1,0
11923,293.188,13.250,-81.188,-0.003,0.010,-0.005,2.280,9.350,1.320,0.010,-0.060,-0.040,-37.000,0.062,5.062,2.250,9.430,1.450,26,0,0,1,0
11934,293.188,13.250,-81.188,-0.001,0.009,-0.002,2.260,9.350,1.310,0.000,-0.070,-0.140,-37.000,0.062,5.062,2.250,9.430,1.450,26,0,0,1,0
11944,293.188,13.250,-81.188,-0.004,0.004,-0.004,2.260,9.360,1.410,0.010,-0.060,-0.040,-37.000,0.062,5.062,2.250,9.430,1.450,26,0,0,1,0
11954,293.188,13.250,-81.188,-0.004,0.005,-0.005,2.250,9.360,1.390,0.010,-0.060,-0.040,-37.000,0.062,5.062,2.250,9.430,1.450,26,0,0,1,0
11963,293.188,13.250,-81.188,-0.005,0.010,-0.004,2.250,9.370,1.400,0.000,-0.060,-0.050,-36.188,-0.562,5.062,2.250,9.430,1.450,26,0,0,1,0
11973,293.188,13.250,-81.188,-0.004,0.009,-0.003,2.270,9.350,1.350,0.000,-0.050,-0.040,-36.188,-0.562,5.062,2.250,9.430,1.450,26,0,0,1,0
11984,293.188,13.250,-81.188,-0.001,0.011,-0.004,2.250,9.370,1.380,0.010,-0.070,-0.090,-36.188,-0.562,5.062,2.250,9.430,1.450,26,0,0,1,0
11994,293.125,13.250,-81.188,0.000,0.013,-0.004,2.260,9.350,1.470,0.000,-0.050,-0.070,-36.188,-0.562,5.062,2.250,9.430,1.450,26,0,0,1,0
12004,293.125,13.250,-81.188,0.000,0.012,-0.003,2.250,9.360,1.470,0.000,-0.070,0.010,-36.562,0.062,3.500,2.250,9.430,1.450,26,0,0,1,0
12013,293.125,13.250,-81.188,-0.002,0.012,-0.003,2.270,9.350,1.390,0.000,-0.060,0.010,-36.562,0.062,3.500,2.250,9.430,1.450,26,0,0,1,0
12024,293.125,13.250,-81.188,-0.001,0.013,0.001,2.240,9.350,1.380,0.020,-0.070,-0.060,-36.562,0.062,3.500,2.250,9.430,1.450,26,0,0,1,0
12290,293.062,13.250,-81.188,-0.005,-0.008,-0.005,2.250,9.340,1.390,0.000,-0.080,-0.060,-37.000,0.875,3.188,2.250,9.430,1.460,26,0,0,1,0
12300,293.062,13.250,-81.188,-0.003,-0.014,-0.008,2.220,9.370,1.420,-0.030,-0.060,-0.030,-37.000,0.875,3.188,2.250,9.430,1.460,26,0,0,1,0
12307,293.062,13.250,-81.188,-0.001,-0.017,-0.007,2.180,9.390,1.430,-0.060,-0.030,-0.020,-36.562,0.500,3.188,2.250,9.430,1.460,26,0,0,1,0
12317,293.062,13.250,-81.188,-0.002,-0.012,-0.010,2.180,9.350,1.410,-0.070,-0.070,-0.040,-36.562,0.500,3.188,2.250,9.430,1.460,26,0,0,1,0
12327,293.062,13.250,-81.188,-0.001,-0.011,-0.007,2.250,9.370,1.310,0.000,-0.050,-0.140,-36.562,0.500,3.188,2.250,9.430,1.460,26,0,0,1,0
12337,293.062,13.250,-81.188,0.003,-0.007,-0.007,2.240,9.390,1.340,0.000,-0.030,-0.120,-36.562,0.500,3.188,2.250,9.430,1.460,26,0,0,1,0
12347,293.062,13.250,-81.188,0.001,-0.001,-0.003,2.220,9.370,1.430,-0.020,-0.060,-0.020,-36.562,0.500,3.188,2.250,9.430,1.460,26,0,0,1,0
12356,293.062,13.250,-81.188,0.001,-0.001,-0.003,2.170,9.360,1.460,-0.020,-0.060,-0.020,-36.562,0.062,3.500,2.250,9.430,1.460,26,0,0,1,0
12365,293.062,13.250,-81.188,-0.001,-0.004,-0.004,2.140,9.320,1.430,-0.100,-0.100,-0.020,-36.562,0.062,3.500,2.250,9.430,1.460,26,0,0,1,0
12375,293.062,13.250,-81.188,-0.005,-0.005,-0.007,2.190,9.360,1.370,-0.100,-0.100,-0.020,-36.562,0.062,3.500,2.250,9.430,1.460,26,0,0,1,0
12385,293.062,13.250,-81.188,-0.008,-0.001,-0.008,2.240,9.400,1.350,-0.050,-0.060,-0.080,-36.562,0.062,3.500,2.250,9.430,1.460,26,0,0,1,0
12395,293.062,13.250,-81.188,-0.009,0.007,-0.007,2.260,9.440,1.410,-0.010,-0.020,-0.100,-36.562,0.062,3.500,2.250,9.430,1.460,26,0,0,1,0
12405,293.062,13.250,-81.188,-0.009,0.010,-0.002,2.260,9.400,1.410,0.010,0.010,-0.040,-36.188,-0.250,3.188,2.250,9.430,1.460,26,0,0,1,0
12414,293.062,13.250,-81.188,-0.002,0.004,-0.001,2.180,9.370,1.410,0.000,-0.020,-0.040,-36.188,-0.250,3.188,2.250,9.430,1.460,26,0,0,1,0
12424,293.062,13.250,-81.188,-0.001,-0.004,0.000,2.190,9.350,1.340,-0.060,-0.050,-0.040,-36.188,-0.250,3.188,2.250,9.430,1.460,26,0,0,1,0
12435,293.062,13.250,-81.188,-0.003,-0.002,-0.002,2.190,9.340,1.420,-0.050,-0.070,-0.110,-36.188,-0.250,3.188,2.250,9.430,1.460,26,0,0,1,0
12445,293.062,13.250,-81.188,-0.002,0.000,-0.003,2.200,9.360,1.440,-0.060,-0.080,-0.030,-36.188,-0.250,3.188,2.250,9.430,1.460,26,0,0,1,0
12455,293.062,13.250,-81.188,-0.004,0.005,-0.003,2.300,9.350,1.470,-0.050,-0.060,-0.010,-36.188,-0.250,3.188,2.250,9.430,1.460,26,0,0,1,0
12464,293.062,13.250,-81.188,-0.010,0.010,0.000,2.310,9.350,1.430,0.040,-0.070,0.010,-37.688,-0.250,3.875,2.250,9.430,1.460,26,0,0,1,0
12474,293.062,13.250,-81.188,-0.010,0.010,0.000,2.300,9.340,1.380,0.060,-0.070,-0.020,-37.688,-0.250,3.875,2.250,9.430,1.460,26,0,0,1,0
12485,293.062,13.250,-81.188,-0.008,0.008,0.002,2.270,9.360,1.400,0.040,-0.080,-0.070,-37.688,-0.250,3.875,2.250,9.430,1.460,26,0,0,1,0
12500,293.062,13.250,-81.188,-0.003,-0.001,0.000,2.200,9.360,1.440,-0.050,-0.060,-0.010,-37.688,-0.250,3.875,2.250,9.430,1.460,26,0,0,1,0
12507,293.062,13.250,-81.188,-0.003,-0.005,0.000,2.160,9.350,1.470,-0.080,-0.070,0.010,-37.375,0.500,3.875,2.250,9.430,1.460,26,0,0,1,0
12517,293.062,13.250,-81.188,-0.005,-0.010,-0.003,2.140,9.360,1.460,-0.110,-0.060,0.000,-37.375,0.500,3.875,2.250,9.430,1.460,27,0,0,1,0
12527,293.062,13.250,-81.188,-0.005,-0.010,-0.003,2.200,9.380,1.330,-0.040,-0.050,-0.120,-37.375,0.500,3.875,2.250,9.430,1.460,27,0,0,1,0
12537,293.062,13.250,-81.188,-0.004,-0.009,-0.004,2.220,9.400,1.400,-0.030,-0.020,-0.050,-37.375,0.500,3.875,2.250,9.430,1.460,27,0,0,1,0
12547,293.062,13.250,-81.188,-0.008,-0.005,-0.005,2.210,9.380,1.410,-0.040,-0.050,-0.040,-37.375,0.500,3.875,2.250,9.430,1.460,27,0,0,1,0
12556,293.062,13.250,-81.188,-0.004,-0.005,-0.002,2.230,9.380,1.430,-0.040,-0.050,-0.040,-37.000,0.500,4.688,2.250,9.430,1.460,27,0,0,1,0
12565,293.062,13.250,-81.188,-0.002,-0.005,-0.003,2.200,9.380,1.400,-0.020,-0.050,-0.020,-37.000,0.500,4.688,2.250,9.430,1.460,27,0,0,1,0
12575,293.062,13.250,-81.188,-0.004,-0.008,-0.001,2.190,9.380,1.360,-0.040,-0.050,-0.050,-37.000,0.500,4.688,2.250,9.430,1.460,27,0,0,1,0
12585,293.062,13.250,-81.188,-0.003,-0.001,0.001,2.190,9.360,1.400,-0.050,-0.060,-0.050,-37.000,0.500,4.688,2.250,9.430,1.460,27,0,0,1,0
12595,293.062,13.250,-81.188,-0.005,0.001,0.001,2.270,9.370,1.410,-0.050,-0.060,-0.050,-37.000,0.500,4.688,2.250,9.430,1.460,27,0,0,1,0
12605,293.062,13.250,-81.188,-0.008,0.007,0.002,2.250,9.380,1.440,0.020,-0.060,-0.040,-36.562,1.188,3.875,2.250,9.430,1.460,27,0,0,1,0
12614,293.062,13.250,-81.188,-0.008,0.005,0.004,2.240,9.360,1.470,0.000,-0.040,-0.010,-36.562,1.188,3.875,2.250,9.430,1.460,27,0,0,1,0
12625,293.062,13.250,-81.188,-0.008,0.007,0.004,2.250,9.370,1.360,0.000,-0.060,0.000,-36.562,1.188,3.875,2.250,9.430,1.460,27,0,0,1,0
12635,293.062,13.250,-81.188,-0.005,0.001,0.004,2.190,9.350,1.360,0.000,-0.050,-0.090,-36.562,1.188,3.875,2.250,9.430,1.460,27,0,0,1,0
12645,293.062,13.250,-81.188,-0.005,-0.003,0.003,2.160,9.350,1.390,-0.050,-0.070,-0.090,-36.562,1.188,3.875,2.250,9.430,1.460,27,0,0,1,0
12655,293.062,13.250,-81.188,-0.003,-0.008,0.001,2.150,9.360,1.390,-0.080,-0.070,-0.060,-36.562,1.188,3.875,2.250,9.430,1.460,27,0,0,1,0
12664,293.062,13.250,-81.188,-0.003,-0.002,0.002,2.140,9.380,1.360,-0.090,-0.060,-0.060,-37.688,-0.250,4.688,2.250,9.430,1.460,27,0,0,1,0
12675,293.062,13.250,-81.188,-0.003,-0.001,-0.001,2.190,9.390,1.310,-0.110,-0.050,-0.090,-37.688,-0.250,4.688,2.250,9.430,1.460,27,0,0,1,0
12685,293.062,13.250,-81.188,-0.001,0.002,0.002,2.230,9.400,1.360,-0.050,-0.040,-0.140,-37.688,-0.250,4.688,2.250,9.430,1.460,27,0,0,1,0
12695,293.062,13.250,-81.188,-0.001,0.007,-0.001,2.240,9.400,1.390,-0.010,-0.030,-0.060,-37.688,-0.250,4.688,2.250,9.430,1.460,27,0,0,1,0
12705,293.062,13.250,-81.188,-0.004,0.004,0.000,2.210,9.390,1.410,-0.010,-0.030,-0.060,-37.688,-0.250,4.688,2.250,9.430,1.460,27,0,0,1,0
12714,293.062,13.250,-81.188,-0.003,0.000,0.001,2.190,9.380,1.370,-0.040,-0.040,-0.040,-37.375,0.500,4.688,2.250,9.430,1.460,27,0,0,1,0
12725,293.062,13.250,-81.188,-0.001,-0.001,-0.002,2.140,9.350,1.270,-0.060,-0.050,-0.080,-37.375,0.500,4.688,2.250,9.430,1.460,27,0,0,1,0
12735,293.062,13.250,-81.188,-0.002,0.000,-0.005,2.140,9.300,1.260,-0.100,-0.070,-0.180,-37.375,0.500,4.688,2.250,9.430,1.460,27,0,0,1,0
12745,293.062,13.250,-81.188,-0.003,-0.002,-0.004,2.330,9.350,1.380,0.070,-0.070,-0.070,-37.375,0.500,4.688,2.250,9.430,1.460,27,0,0,1,0
12755,293.062,13.250,-81.188,-0.007,-0.002,-0.004,2.330,9.340,1.430,0.070,-0.070,-0.070,-37.375,0.500,4.688,2.250,9.430,1.460,27,0,0,1,0
12764,293.062,13.250,-81.188,-0.008,0.000,-0.004,2.270,9.350,1.460,0.080,-0.080,-0.020,-36.188,0.875,4.250,2.250,9.430,1.460,27,0,0,1,0
12775,293.062,13.250,-81.188,-0.003,-0.008,-0.001,2.160,9.370,1.410,0.020,-0.070,0.000,-36.188,0.875,4.250,2.250,9.430,1.460,27,0,0,1,0
12785,293.062,13.250,-81.188,-0.002,-0.008,-0.003,2.190,9.340,1.440,-0.080,-0.050,-0.040,-36.188,0.875,4.250,2.250,9.430,1.460,27,0,0,1,0
12795,293.062,13.250,-81.188,-0.005,0.000,-0.004,2.230,9.320,1.440,-0.050,-0.080,-0.010,-36.188,0.875,4.250,2.250,9.430,1.460,27,0,0,1,0
12806,293.062,13.250,-81.188,-0.002,0.012,-0.004,2.320,9.330,1.460,-0.010,-0.100,-0.010,-35.875,-0.562,4.688,2.250,9.430,1.460,27,0,0,1,0
12815,293.062,13.250,-81.188,0.008,0.021,-0.003,2.350,9.330,1.440,0.070,-0.090,0.000,-35.875,-0.562,4.688,2.250,9.430,1.460,27,0,0,1,0
12825,293.062,13.250,-81.188,0.008,0.021,-0.003,2.200,9.360,1.320,0.090,-0.090,-0.010,-35.875,-0.562,4.688,2.250,9.430,1.460,27,0,0,1,0
12835,293.062,13.250,-81.188,0.014,0.019,-0.003,2.140,9.330,1.350,-0.040,-0.060,-0.130,-35.875,-0.562,4.688,2.250,9.430,1.450,27,0,0,1,0
12845,293.062,13.250,-81.188,0.021,0.016,-0.003,2.180,9.360,1.490,-0.110,-0.090,-0.100,-35.875,-0.562,4.688,2.250,9.430,1.450,27,0,0,1,0
12856,293.000,13.250,-81.188,0.031,0.034,-0.008,2.180,9.360,1.490,-0.060,-0.060,0.030,-35.875,-0.562,4.688,2.250,9.430,1.450,27,0,0,1,0
12864,293.000,13.250,-81.188,0.016,0.047,-0.003,2.240,9.380,1.540,0.000,-0.050,0.080,-37.000,0.062,4.688,2.250,9.430,1.450,27,0,0,1,0
12871,293.000,13.250,-81.188,0.016,0.047,-0.003,2.270,9.350,1.600,0.020,-0.080,0.140,-37.000,0.062,4.688,2.250,9.430,1.450,27,0,0,1,0
12881,292.938,13.250,-81.188,0.010,0.028,-0.007,2.290,9.340,1.480,0.040,-0.090,0.020,-37.000,0.062,4.688,2.250,9.430,1.450,27,0,0,1,0
12891,292.938,13.250,-81.188,0.007,0.003,-0.010,2.200,9.330,1.570,-0.040,-0.100,0.110,-37.000,0.062,4.688,2.250,9.430,1.450,27,0,0,1,0
12902,293.000,13.250,-81.188,0.005,-0.008,-0.014,2.130,9.350,1.570,-0.110,-0.080,0.110,-37.000,0.062,4.688,2.240,9.430,1.450,27,0,0,1,0
12910,293.000,13.250,-81.188,0.017,0.005,-0.013,2.130,9.400,1.540,-0.110,-0.020,0.090,-37.000,-0.250,4.250,2.240,9.430,1.450,27,0,0,1,0
12921,293.000,13.188,-81.188,0.027,0.012,-0.011,2.130,9.460,1.540,-0.110,0.030,0.090,-37.000,-0.250,4.250,2.240,9.430,1.450,27,0,0,1,0
12931,292.938,13.188,-81.250,0.051,0.015,-0.010,2.220,9.390,1.170,-0.020,-0.030,-0.270,-37.000,-0.250,4.250,2.240,9.430,1.440,27,0,0,1,0
12941,292.938,13.188,-81.250,0.070,0.027,-0.009,2.230,9.310,1.210,0.000,-0.120,-0.220,-37.000,-0.250,4.250,2.240,9.430,1.440,27,0,0,1,0
12951,292.938,13.188,-81.312,0.072,0.036,-0.005,2.250,9.240,1.350,0.000,-0.190,-0.070,-37.000,-0.250,4.250,2.240,9.430,1.430,27,0,0,1,0
12958,292.938,13.188,-81.312,0.072,0.036,-0.005,2.050,9.450,1.550,-0.180,0.010,0.110,-37.375,0.875,3.500,2.240,9.430,1.430,27,0,0,1,0
12966,292.875,13.188,-81.312,0.055,0.043,-0.009,2.040,9.470,1.550,-0.180,0.010,0.110,-37.375,0.875,3.500,2.240,9.430,1.420,27,0,0,1,0
12974,292.875,13.188,-81.375,0.055,0.043,-0.009,2.040,9.470,1.550,-0.190,0.030,0.120,-37.375,0.875,3.500,2.240,9.430,1.420,27,0,0,1,0
12983,292.812,13.188,-81.375,0.043,0.056,-0.014,2.080,9.440,1.510,-0.150,0.000,0.080,-37.375,0.875,3.500,2.230,9.440,1.420,27,0,0,1,0
12994,292.812,13.188,-81.375,0.029,0.062,-0.020,2.400,9.320,1.550,-0.090,-0.110,0.090,-37.375,0.875,3.500,2.230,9.440,1.420,27,0,0,1,0
13004,292.812,13.188,-81.375,0.029,0.052,-0.012,2.400,9.320,1.550,0.170,-0.110,0.130,-37.375,0.875,3.500,2.230,9.440,1.420,27,0,0,1,0
13012,292.812,13.125,-81.438,0.033,0.034,-0.004,2.370,9.350,1.510,0.130,-0.080,0.090,-37.375,0.875,4.688,2.230,9.440,1.420,27,0,0,1,0
13020,292.812,13.125,-81.438,0.043,0.015,-0.003,2.330,9.350,1.430,0.090,-0.090,0.010,-37.375,0.875,4.688,2.230,9.440,1.410,27,0,0,1,0
13028,292.750,13.125,-81.438,0.051,0.007,-0.011,2.280,9.380,1.320,0.050,-0.050,-0.090,-37.375,0.875,4.688,2.230,9.440,1.410,27,0,0,1,0
13038,292.750,13.125,-81.438,0.051,0.007,-0.011,2.240,9.360,1.430,0.010,-0.070,0.020,-37.375,0.875,4.688,2.230,9.440,1.400,27,0,0,1,0
13047,292.750,13.125,-81.500,0.062,0.001,-0.011,2.170,9.370,1.450,-0.050,-0.060,0.050,-37.375,0.875,4.688,2.230,9.440,1.400,27,0,0,1,0
13057,292.750,13.125,-81.500,0.064,-0.003,-0.010,2.150,9.320,1.540,-0.050,-0.060,0.050,-37.375,0.875,4.688,2.230,9.440,1.390,27,0,0,1,0
13065,292.750,13.125,-81.562,0.059,0.000,-0.008,2.150,9.320,1.540,-0.070,-0.110,0.150,-37.375,-0.250,5.062,2.230,9.440,1.390,27,0,0,1,0
13072,292.750,13.125,-81.625,0.056,0.002,-0.009,2.110,9.380,1.490,-0.110,-0.060,0.100,-37.375,-0.250,5.062,2.230,9.440,1.390,27,0,0,1,0
13082,292.750,13.125,-81.625,0.051,0.002,-0.015,2.150,9.390,1.460,-0.070,-0.050,0.070,-37.375,-0.250,5.062,2.230,9.440,1.380,27,0,0,1,0
13092,292.750,13.125,-81.625,0.052,-0.002,-0.017,2.230,9.410,1.460,0.000,-0.020,0.070,-37.375,-0.250,5.062,2.230,9.440,1.380,27,0,0,1,0
13103,292.750,13.125,-81.688,0.063,-0.015,-0.017,2.260,9.400,1.480,0.020,-0.040,0.110,-37.375,-0.250,5.062,2.230,9.450,1.370,27,0,0,1,0
13110,292.750,13.125,-81.750,0.072,-0.020,-0.013,2.210,9.340,1.450,-0.010,-0.100,0.080,-36.562,-0.562,4.688,2.220,9.450,1.360,27,0,0,1,0
13118,292.750,13.125,-81.750,0.072,-0.020,-0.013,2.230,9.340,1.410,-0.010,-0.100,0.080,-36.562,-0.562,4.688,2.220,9.450,1.360,27,0,0,1,0
13126,292.750,13.125,-81.750,0.081,-0.015,-0.009,2.220,9.400,1.300,0.000,-0.100,0.050,-36.562,-0.562,4.688,2.220,9.450,1.350,27,0,0,1,0
13135,292.750,13.125,-81.812,0.082,-0.013,-0.005,2.200,9.440,1.390,0.000,-0.050,-0.040,-36.562,-0.562,4.688,2.230,9.450,1.340,27,0,0,1,0
13146,292.750,13.125,-81.875,0.084,-0.023,-0.004,2.200,9.410,1.440,-0.020,-0.010,0.040,-36.562,-0.562,4.688,2.230,9.450,1.330,27,0,0,1,0
13156,292.812,13.125,-81.938,0.084,-0.047,-0.004,2.200,9.410,1.440,-0.020,-0.030,0.110,-36.562,-0.562,4.688,2.230,9.450,1.320,27,0,0,1,0
13164,292.812,13.125,-82.000,0.088,-0.059,-0.001,2.190,9.390,1.430,-0.030,-0.060,0.110,-36.562,-0.562,3.875,2.230,9.450,1.320,27,0,0,1,0
13172,292.812,13.125,-82.062,0.095,-0.059,-0.005,2.080,9.420,1.480,-0.140,-0.030,0.170,-36.562,-0.562,3.875,2.230,9.450,1.310,27,0,0,1,0
13180,292.812,13.125,-82.062,0.105,-0.074,-0.014,1.760,9.380,1.240,-0.460,-0.070,-0.060,-36.562,-0.562,3.875,2.230,9.460,1.300,27,0,0,1,0
13190,292.875,13.125,-82.125,0.111,-0.095,-0.024,1.660,9.400,1.130,-0.560,-0.050,-0.150,-36.562,-0.562,3.875,2.220,9.460,1.290,27,0,0,1,0
13200,292.938,13.125,-82.188,0.119,-0.127,-0.028,1.640,9.420,1.200,-0.580,-0.030,-0.070,-36.562,-0.562,3.875,2.220,9.460,1.270,27,0,0,1,0
13208,293.000,13.125,-82.250,0.119,-0.127,-0.028,1.570,9.440,1.210,-0.580,-0.030,-0.070,-37.375,-0.562,5.500,2.220,9.460,1.260,27,0,0,1,0
13216,293.062,13.062,-82.375,0.130,-0.158,-0.040,1.570,9.440,1.210,-0.650,-0.020,-0.040,-37.375,-0.562,5.500,2.220,9.460,1.260,27,0,0,1,0
13224,293.188,13.062,-82.438,0.135,-0.189,-0.052,1.210,9.550,1.130,-1.000,0.080,-0.100,-37.375,-0.562,5.500,2.210,9.470,1.220,27,0,0,1,0
13234,293.312,13.062,-82.562,0.143,-0.235,-0.072,0.710,9.610,0.990,-1.260,0.120,-0.190,-37.375,-0.562,5.500,2.210,9.470,1.200,27,0,0,1,0
13245,293.438,13.000,-82.688,0.149,-0.265,-0.100,0.440,9.690,0.850,-1.500,0.130,-0.210,-37.375,-0.562,5.500,2.200,9.480,1.180,27,0,0,1,0
13256,293.625,12.938,-82.812,0.166,-0.296,-0.127,0.440,9.690,0.850,-1.760,0.210,-0.330,-37.375,-0.562,5.500,2.200,9.480,1.180,27,0,0,1,0
13263,293.875,12.938,-83.000,0.185,-0.320,-0.147,0.260,9.730,0.720,-1.920,0.240,-0.440,-37.000,0.062,5.500,2.190,9.480,1.160,27,0,0,1,0
13271,293.875,12.938,-83.000,0.211,-0.326,-0.171,0.010,9.780,0.660,-2.160,0.290,-0.470,-37.000,0.062,5.500,2.180,9.490,1.130,27,0,0,1,0
13279,294.125,12.812,-83.125,0.221,-0.329,-0.188,-0.290,9.830,0.560,-2.460,0.330,-0.540,-37.000,0.062,5.500,2.160,9.490,1.110,27,0,0,1,0
13290,294.312,12.750,-83.312,0.252,-0.335,-0.233,-1.270,9.880,0.110,-3.430,0.370,-0.960,-37.000,0.062,5.500,2.150,9.500,1.080,27,0,0,1,0
13300,294.625,12.625,-83.500,0.295,-0.321,-0.303,-1.920,9.840,0.000,-4.040,0.320,-1.030,-37.000,0.062,5.500,2.120,9.510,1.040,27,0,0,1,0
13308,294.875,12.500,-83.688,0.295,-0.321,-0.303,-2.670,9.820,-0.200,-4.040,0.320,-1.030,-36.188,-0.375,5.500,2.090,9.520,1.000,27,0,0,1,0
13316,295.250,12.312,-83.938,0.323,-0.371,-0.399,-2.670,9.820,-0.200,-4.770,0.290,-1.210,-36.188,-0.375,5.500,2.040,9.540,0.970,27,0,0,1,0
13324,295.688,12.000,-84.125,0.324,-0.382,-0.529,-4.030,9.750,-0.030,-6.080,0.210,-1.000,-36.188,-0.375,5.500,1.990,9.550,0.930,27,0,0,1,0
13334,296.188,11.688,-84.375,0.301,-0.345,-0.659,-4.750,10.080,-0.310,-6.430,0.310,-1.120,-36.188,-0.375,5.500,1.920,9.570,0.900,27,0,0,1,0
13345,296.812,11.250,-84.625,0.323,-0.346,-0.792,-5.110,10.130,-0.280,-6.670,0.500,-1.210,-36.188,-0.375,5.500,1.830,9.590,0.850,27,0,0,1,0
13356,297.438,10.812,-84.875,0.391,-0.355,-0.906,-5.110,10.130,-0.280,-6.950,0.530,-1.130,-36.188,-0.375,5.500,1.830,9.590,0.850,27,0,0,1,0
13364,298.125,10.250,-85.188,0.476,-0.317,-0.997,-4.960,10.230,0.010,-6.710,0.620,-0.780,-35.875,-1.062,5.875,1.740,9.610,0.800,27,0,0,1,0
13371,298.750,9.688,-85.562,0.609,-0.276,-1.030,-4.290,10.220,0.360,-5.940,0.580,-0.380,-35.875,-1.062,5.875,1.650,9.630,0.740,27,0,0,1,0
13380,298.750,9.688,-85.562,0.744,-0.317,-1.042,-3.820,10.250,0.700,-5.380,0.590,0.030,-35.875,-1.062,5.875,1.560,9.650,0.670,27,0,0,1,0
13390,299.438,9.125,-86.000,0.864,-0.292,-1.044,-3.250,10.640,1.130,-4.720,0.960,0.550,-35.875,-1.062,5.875,1.460,9.670,0.580,27,0,0,1,0
13400,300.062,8.562,-86.500,0.983,-0.103,-0.975,-0.900,11.750,0.270,-2.270,2.050,-0.210,-35.875,-1.062,5.875,1.370,9.690,0.490,27,0,0,1,0
13409,300.625,8.000,-87.062,0.983,-0.103,-0.975,1.730,12.110,-0.310,-2.270,2.050,-0.210,-35.875,-2.562,6.250,1.300,9.710,0.380,27,0,0,1,0
13416,300.938,7.625,-87.688,1.121,0.065,-0.761,1.730,12.110,-0.310,0.430,2.400,-0.690,-35.875,-2.562,6.250,1.300,9.710,0.380,27,0,0,1,0
13424,301.000,7.375,-88.375,1.301,0.056,-0.375,3.270,12.260,-0.210,2.000,2.540,-0.470,-35.875,-2.562,6.250,1.240,9.720,0.140,27,0,0,1,0
13434,301.062,7.250,-89.125,1.320,-0.011,-0.235,-1.360,14.250,-1.090,-0.460,3.940,-1.050,-35.875,-2.562,6.250,1.200,9.730,0.010,27,0,0,1,0
13445,301.250,7.000,-89.875,1.284,-0.136,-0.425,-3.410,14.720,-1.550,-2.560,4.520,-1.110,-35.875,-2.562,6.250,1.130,9.740,-0.090,27,0,0,1,0
13456,301.812,6.625,-90.562,1.189,-0.347,-0.766,-3.410,14.720,-1.550,-4.540,4.980,-1.450,-35.875,-2.562,6.250,1.130,9.740,-0.090,27,0,0,1,0
13464,302.562,6.000,-91.188,1.107,-0.403,-1.067,-4.590,15.160,-1.760,-5.620,5.410,-1.560,-34.750,-3.688,8.000,1.030,9.750,-0.200,27,0,0,1,0
13471,302.562,6.000,-91.188,0.994,-0.398,-1.198,-7.550,15.270,-1.520,-8.460,5.510,-1.220,-34.750,-3.688,8.000,0.910,9.750,-0.300,27,0,0,1,0
13479,303.375,5.312,-91.750,0.877,-0.252,-1.274,-8.290,15.480,-1.370,-9.080,5.710,-0.980,-34.750,-3.688,8.000,0.790,9.760,-0.380,27,0,0,1,0
13490,304.188,4.625,-92.250,0.765,0.012,-1.367,-7.790,15.680,-1.410,-8.460,5.900,-0.950,-34.750,-3.688,8.000,0.660,9.770,-0.450,27,0,0,1,0
13500,304.938,3.875,-92.688,0.678,0.376,-1.406,-4.660,16.770,-0.930,-5.200,6.990,-0.410,-34.750,-3.688,8.000,0.530,9.770,-0.520,27,0,0,1,0
13508,305.438,3.062,-93.000,0.678,0.376,-1.406,-1.970,16.890,-0.510,-5.200,6.990,-0.410,-33.688,-6.688,8.000,0.400,9.780,-0.570,27,0,0,1,0
13516,305.812,2.312,-93.375,0.625,0.742,-1.437,-1.970,16.890,-0.510,-2.380,7.110,0.060,-33.688,-6.688,8.000,0.270,9.780,-0.630,27,0,0,1,0
13524,306.062,1.562,-93.688,0.628,0.850,-1.403,-0.310,16.380,-0.190,-0.580,6.600,0.430,-33.688,-6.688,8.000,0.140,9.780,-0.690,27,0,0,1,0
13534,306.312,0.812,-94.000,0.635,0.857,-1.434,0.990,15.460,-0.080,0.840,5.680,0.600,-33.688,-6.688,8.000,0.000,9.770,-0.740,27,0,0,1,0
13545,306.750,0.000,-94.312,0.575,0.792,-1.575,3.890,13.510,0.470,2.980,4.250,1.400,-33.688,-6.688,8.000,-0.150,9.770,-0.790,27,0,0,1,0
13556,307.250,-0.875,-94.625,0.481,0.695,-1.720,3.890,13.510,0.470,4.040,3.740,1.270,-33.688,-6.688,8.000,-0.150,9.770,-0.790,27,0,0,1,0
13563,308.000,-1.875,-94.875,0.509,0.559,-1.863,4.980,12.920,0.560,5.310,3.160,1.400,-33.750,-8.250,7.875,-0.320,9.760,-0.840,27,0,0,1,0
13571,309.000,-3.000,-95.250,0.574,0.259,-2.087,5.670,12.380,0.470,6.190,2.630,1.370,-33.750,-8.250,7.875,-0.520,9.750,-0.890,27,0,0,1,0
13579,309.000,-3.000,-95.250,0.549,-0.123,-2.293,3.690,12.300,-0.140,4.430,2.570,0.800,-33.750,-8.250,7.875,-0.740,9.730,-0.940,27,0,0,1,1
13589,310.375,-4.312,-95.562,0.473,-0.387,-2.311,2.000,11.660,-0.290,2.960,1.950,0.690,-33.750,-8.250,7.875,-0.960,9.700,-0.990,27,0,0,1,1
13599,311.938,-5.625,-95.812,0.311,-0.347,-2.215,0.850,11.670,-0.170,2.030,1.990,0.830,-33.750,-8.250,7.875,-1.170,9.680,-1.010,27,0,0,1,1
13608,313.375,-6.812,-95.938,0.311,-0.347,-2.215,1.870,11.820,-0.670,2.030,1.990,0.830,-33.750,-8.250,7.875,-1.360,9.650,-1.030,27,0,0,1,1
13616,314.562,-8.000,-96.062,0.200,-0.060,-2.080,1.870,11.820,-0.670,3.240,2.170,0.350,-31.250,-11.500,7.750,-1.360,9.650,-1.030,27,0,0,1,1
13624,315.500,-9.000,-96.250,0.212,0.208,-1.896,2.480,10.950,-1.110,4.020,1.320,-0.050,-31.250,-11.500,7.750,-1.540,9.620,-1.050,27,0,0,1,1
13634,316.375,-10.000,-96.375,0.219,0.242,-1.793,2.620,10.250,-0.940,4.330,0.650,0.130,-31.250,-11.500,7.750,-1.870,9.560,-1.090,27,0,0,1,1
13644,317.375,-11.000,-96.500,0.160,0.052,-1.826,2.480,9.970,-0.990,4.360,0.410,0.100,-31.250,-11.500,7.750,-2.050,9.520,-1.090,27,0,0,1,1
13655,318.562,-12.062,-96.562,0.056,-0.118,-1.949,0.770,10.570,-0.830,2.830,1.050,0.260,-31.250,-11.500,7.750,-2.050,9.520,-1.090,27,0,0,1,1
13663,319.688,-13.188,-96.625,0.080,-0.069,-1.981,0.370,10.830,-0.300,2.610,1.350,0.800,-28.688,-18.750,8.062,-2.240,9.480,-1.100,27,0,0,1,1
13670,319.688,-13.188,-96.625,0.215,-0.002,-1.869,0.490,10.550,0.290,2.900,1.110,1.420,-28.688,-18.750,8.062,-2.410,9.430,-1.120,27,0,0,1,1
13678,320.750,-14.188,-96.750,0.215,-0.002,-1.869,0.450,9.550,0.630,3.030,0.160,1.770,-28.688,-18.750,8.062,-2.570,9.390,-1.140,27,0,0,1,1
13689,321.875,-15.188,-96.938,0.248,-0.112,-1.770,-0.830,8.450,0.550,1.900,-0.880,1.700,-28.688,-18.750,8.062,-2.730,9.340,-1.150,27,0,0,1,1
13699,323.000,-16.188,-97.000,0.192,-0.212,-1.770,-1.460,8.970,0.640,1.440,-0.310,1.800,-28.688,-18.750,8.062,-2.910,9.290,-1.160,27,0,0,1,1
13708,324.188,-17.250,-97.125,0.136,-0.175,-1.895,-1.830,9.880,0.260,1.440,-0.310,1.800,-28.688,-18.750,8.062,-3.080,9.230,-1.160,27,0,0,1,1
13716,325.312,-18.312,-97.188,0.053,-0.045,-1.931,-1.830,9.880,0.260,1.250,0.640,1.430,-28.062,-21.188,7.250,-3.080,9.230,-1.160,27,0,0,1,1
13724,326.188,-19.312,-97.375,0.140,0.285,-1.834,-2.350,9.290,-0.040,0.890,0.110,1.140,-28.062,-21.188,7.250,-3.240,9.170,-1.180,27,0,0,1,1
13734,326.875,-20.250,-97.625,0.223,0.571,-1.768,-2.020,8.720,-0.110,1.370,-0.390,1.110,-28.062,-21.188,7.250,-3.540,9.050,-1.270,27,0,0,1,1
13745,327.500,-21.125,-98.000,0.236,0.734,-1.782,-1.270,7.730,-0.280,1.990,-0.930,1.070,-28.062,-21.188,7.250,-3.690,8.980,-1.320,27,0,0,1,1
13756,328.062,-22.062,-98.375,0.261,0.844,-1.826,-1.270,7.730,-0.280,2.410,-1.250,1.030,-28.062,-21.188,7.250,-3.690,8.980,-1.320,27,0,0,1,1
13763,328.625,-23.000,-98.750,0.292,0.872,-1.842,-0.240,6.950,-0.530,3.590,-1.960,0.840,-24.062,-25.375,6.500,-3.830,8.910,-1.380,27,0,0,1,1
13771,328.625,-23.000,-98.750,0.298,0.800,-1.820,-0.330,6.960,-0.670,3.640,-1.870,0.760,-24.062,-25.375,6.500,-3.980,8.840,-1.430,27,0,0,1,1
13779,329.250,-23.938,-99.188,0.298,0.800,-1.820,-0.630,7.090,-1.160,3.490,-1.670,0.320,-24.062,-25.375,6.500,-4.120,8.770,-1.490,27,0,0,1,1
13789,329.875,-24.875,-99.625,0.288,0.726,-1.768,-0.010,6.420,-0.930,4.240,-2.270,0.610,-24.062,-25.375,6.500,-4.250,8.690,-1.540,27,0,0,1,1
13799,330.500,-25.688,-100.062,0.262,0.576,-1.611,-0.190,6.070,-0.880,4.180,-2.550,0.700,-24.062,-25.375,6.500,-4.380,8.620,-1.590,27,0,0,1,1
13808,331.125,-26.562,-100.438,0.262,0.576,-1.611,-1.320,6.180,-1.230,4.180,-2.550,0.700,-24.062,-25.375,6.500,-4.500,8.550,-1.620,27,0,0,1,1
13816,331.812,-27.312,-100.750,0.203,0.442,-1.532,-1.320,6.180,-1.230,3.180,-2.360,0.390,-22.688,-28.250,7.500,-4.500,8.550,-1.620,27,0,0,1,1
13824,332.438,-28.125,-101.000,0.144,0.420,-1.491,-1.230,6.340,-0.960,3.380,-2.140,0.680,-22.688,-28.250,7.500,-4.620,8.480,-1.650,27,0,0,1,1
13834,333.062,-28.812,-101.312,0.140,0.370,-1.432,-1.470,6.340,-1.070,3.250,-2.070,0.600,-22.688,-28.250,7.500,-4.830,8.350,-1.710,27,0,0,1,1
13845,333.625,-29.562,-101.562,0.152,0.394,-1.361,-1.500,5.840,-0.740,3.090,-2.230,0.750,-22.688,-28.250,7.500,-4.930,8.290,-1.740,27,0,0,1,1
13856,334.125,-30.188,-101.875,0.143,0.454,-1.311,-1.500,5.840,-0.740,3.420,-2.440,1.000,-22.688,-28.250,7.500,-4.930,8.290,-1.740,27,0,0,1,1
13863,334.625,-30.812,-102.188,0.132,0.440,-1.259,-1.350,5.450,-0.570,3.670,-2.770,1.200,-20.000,-30.750,5.750,-5.020,8.220,-1.780,27,0,0,1,1
13871,334.625,-30.812,-102.188,0.095,0.428,-1.193,-1.480,5.000,-0.670,3.630,-3.160,1.130,-20.000,-30.750,5.750,-5.110,8.160,-1.800,27,0,0,1,1
13879,335.062,-31.438,-102.438,0.095,0.428,-1.193,-1.310,4.690,-0.660,3.880,-3.410,1.170,-20.000,-30.750,5.750,-5.190,8.110,-1.830,27,0,0,1,1
13889,335.500,-32.000,-102.750,0.092,0.373,-1.021,-1.350,4.310,-0.490,3.910,-3.740,1.360,-20.000,-30.750,5.750,-5.260,8.050,-1.860,27,0,0,1,1
13899,335.875,-32.500,-103.000,0.077,0.285,-0.936,-1.650,3.820,-0.510,3.680,-4.180,1.360,-20.000,-30.750,5.750,-5.330,8.000,-1.880,27,0,0,1,1
13908,336.250,-32.938,-103.188,0.077,0.285,-0.936,-1.380,3.750,-0.720,3.680,-4.180,1.360,-20.000,-30.750,5.750,-5.390,7.960,-1.900,27,0,0,1,1
13916,336.625,-33.375,-103.375,0.059,0.263,-0.834,-1.380,3.750,-0.720,4.000,-4.200,1.170,-18.375,-32.375,5.250,-5.390,7.960,-1.900,27,0,0,1,1
13924,336.812,-33.688,-103.562,0.052,0.285,-0.669,-1.170,3.620,-0.550,4.260,-4.300,1.360,-18.375,-32.375,5.250,-5.440,7.920,-1.920,27,0,0,1,1
13934,337.000,-33.938,-103.750,0.020,0.242,-0.501,-1.020,3.430,-0.670,4.450,-4.460,1.260,-18.375,-32.375,5.250,-5.490,7.880,-1.940,27,0,0,1,1
13945,337.062,-34.062,-103.812,-0.013,0.219,-0.344,-1.050,3.610,-0.880,4.430,-4.320,1.010,-18.375,-32.375,5.250,-5.510,7.870,-1.950,27,0,0,1,1
13956,337.062,-34.188,-103.938,-0.027,0.193,-0.202,-1.050,3.610,-0.880,4.450,-4.250,1.070,-18.375,-32.375,5.250,-5.510,7.870,-1.950,27,0,0,1,1
13964,337.000,-34.188,-103.938,-0.017,0.139,-0.070,-0.900,3.560,-0.960,4.600,-4.300,0.990,-16.375,-33.875,5.562,-5.510,7.860,-1.960,27,0,0,1,1
13971,337.000,-34.188,-103.938,-0.008,0.096,0.044,-0.740,3.410,-1.160,4.760,-4.450,0.800,-16.375,-33.875,5.562,-5.500,7.870,-1.960,27,0,0,1,1
13979,336.938,-34.125,-104.000,-0.008,0.096,0.044,-0.750,3.500,-1.310,4.740,-4.370,0.650,-16.375,-33.875,5.562,-5.490,7.870,-1.960,27,0,0,1,1
13989,336.812,-34.062,-104.000,-0.014,0.087,0.118,-0.740,3.930,-1.350,4.730,-3.950,0.620,-16.375,-33.875,5.562,-5.480,7.880,-1.970,27,0,0,1,1
13999,336.625,-33.938,-104.000,-0.027,0.064,0.181,-0.560,3.900,-0.940,4.890,-3.990,1.010,-16.375,-33.875,5.562,-5.460,7.900,-1.960,27,0,0,1,1
14009,336.500,-33.812,-103.938,-0.064,-0.011,0.281,-0.840,4.600,-1.180,4.890,-3.990,1.010,-16.375,-33.875,5.562,-5.430,7.920,-1.940,27,0,0,1,1
14016,336.312,-33.625,-103.750,-0.157,-0.137,0.377,-0.840,4.600,-1.180,4.590,-3.320,0.760,-15.375,-35.000,5.875,-5.430,7.920,-1.940,27,0,0,1,1
14024,336.062,-33.438,-103.562,-0.144,-0.201,0.452,-0.820,4.910,-0.940,4.580,-3.040,0.970,-15.375,-35.000,5.875,-5.400,7.950,-1.920,27,0,0,1,1
14034,335.938,-33.125,-103.312,-0.133,-0.313,0.552,-1.000,5.110,-1.140,4.360,-2.860,0.750,-15.375,-35.000,5.875,-5.320,8.020,-1.860,27,0,0,1,1
14045,335.688,-32.812,-103.062,-0.154,-0.361,0.686,-2.140,6.170,-1.370,3.800,-2.760,0.580,-15.375,-35.000,5.875,-5.260,8.060,-1.830,27,0,0,1,1
14056,335.375,-32.438,-102.750,-0.189,-0.345,0.798,-2.140,6.170,-1.370,3.110,-1.880,0.460,-15.375,-35.000,5.875,-5.260,8.060,-1.830,27,0,0,1,1
14064,334.938,-32.000,-102.438,-0.232,-0.338,0.910,-2.300,6.510,-1.290,2.890,-1.600,0.500,-17.375,-36.188,5.375,-5.190,8.110,-1.790,27,0,0,1,1
14071,334.938,-32.000,-102.438,-0.232,-0.338,0.910,-2.550,6.810,-1.370,2.570,-1.350,0.380,-17.375,-36.188,5.375,-5.120,8.170,-1.760,27,0,0,1,1
14079,334.500,-31.500,-102.125,-0.251,-0.353,0.984,-2.280,7.200,-1.520,2.760,-1.020,0.200,-17.375,-36.188,5.375,-5.050,8.220,-1.720,27,0,0,1,1
14089,334.062,-31.000,-101.812,-0.256,-0.293,1.002,-2.160,7.110,-1.240,2.810,-1.160,0.440,-17.375,-36.188,5.375,-4.970,8.270,-1.690,27,0,0,1,1
14100,333.500,-30.438,-101.500,-0.276,-0.227,1.036,-1.980,7.140,-1.080,2.910,-1.180,0.570,-17.375,-36.188,5.375,-4.890,8.330,-1.650,27,0,0,1,1
14109,332.938,-29.938,-101.188,-0.364,-0.207,1.017,-1.850,7.200,-0.840,2.910,-1.180,0.570,-17.375,-36.188,5.375,-4.820,8.380,-1.600,27,0,0,1,1
14117,332.375,-29.438,-100.812,-0.452,-0.197,0.960,-1.850,7.200,-0.840,2.960,-1.180,0.760,-18.375,-34.562,5.688,-4.820,8.380,-1.600,27,0,0,1,1
14125,331.812,-28.938,-100.438,-0.495,-0.259,0.945,-1.840,7.990,-0.370,2.900,-0.440,1.170,-18.375,-34.562,5.688,-4.740,8.430,-1.550,27,0,0,1,1
14135,331.312,-28.438,-100.000,-0.517,-0.316,0.982,-2.040,8.490,-0.620,2.620,0.000,0.870,-18.375,-34.562,5.688,-4.590,8.540,-1.430,27,0,0,1,1
14145,330.750,-27.875,-99.500,-0.581,-0.349,1.052,-2.460,9.880,-0.740,2.150,0.630,0.790,-18.375,-34.562,5.688,-4.500,8.600,-1.370,27,0,0,1,1
14156,330.125,-27.312,-99.062,-0.581,-0.336,1.114,-2.460,9.880,-0.740,2.040,1.280,0.630,-18.375,-34.562,5.688,-4.500,8.600,-1.370,27,0,0,1,1
14164,329.562,-26.688,-98.562,-0.564,-0.388,1.173,-2.340,10.530,-0.490,2.060,1.860,0.810,-20.250,-33.188,4.875,-4.410,8.660,-1.300,27,0,0,1,1
14172,329.562,-26.688,-98.562,-0.551,-0.454,1.286,-2.410,10.410,-0.570,1.890,1.680,0.660,-20.250,-33.188,4.875,-4.300,8.720,-1.240,27,0,0,1,1
14179,328.938,-26.000,-98.062,-0.551,-0.454,1.286,-2.620,10.260,-0.400,1.560,1.480,0.770,-20.250,-33.188,4.875,-4.190,8.780,-1.170,27,0,0,1,1
14190,328.188,-25.250,-97.625,-0.556,-0.411,1.418,-3.140,10.890,-0.280,0.920,2.040,0.820,-20.250,-33.188,4.875,-4.060,8.850,-1.110,27,0,0,1,1
14200,327.438,-24.500,-97.125,-0.604,-0.396,1.515,-3.780,11.180,-0.170,0.150,2.260,0.860,-20.250,-33.188,4.875,-3.930,8.920,-1.040,27,0,0,1,1
14209,326.625,-23.625,-96.625,-0.647,-0.392,1.566,-4.200,11.380,-0.190,0.150,2.260,0.860,-20.250,-33.188,4.875,-3.800,8.980,-0.960,27,0,0,1,1
14217,325.812,-22.812,-96.125,-0.678,-0.384,1.561,-4.200,11.380,-0.190,-0.400,2.390,0.770,-21.750,-32.500,5.688,-3.800,8.980,-0.960,27,0,0,1,1
14224,325.000,-21.938,-95.625,-0.683,-0.332,1.539,-4.750,11.610,-0.710,-1.080,2.560,0.170,-21.750,-32.500,5.688,-3.670,9.040,-0.890,27,0,0,1,1
14235,324.062,-21.125,-95.188,-0.659,-0.131,1.529,-4.940,11.550,-1.070,-1.400,2.450,-0.240,-21.750,-32.500,5.688,-3.400,9.160,-0.770,27,0,0,1,1
14245,323.062,-20.250,-94.812,-0.621,0.047,1.534,-5.650,11.320,-1.250,-1.890,2.400,-0.320,-21.750,-32.500,5.688,-3.260,9.210,-0.730,27,0,0,1,1
14256,321.938,-19.438,-94.562,-0.571,0.239,1.514,-5.650,11.320,-1.250,-2.390,2.100,-0.520,-21.750,-32.500,5.688,-3.260,9.210,-0.730,27,0,0,1,1
14264,320.750,-18.562,-94.312,-0.574,0.445,1.504,-5.470,11.100,-1.670,-2.340,1.830,-0.970,-24.688,-31.375,4.500,-3.120,9.260,-0.690,27,0,0,1,1
14272,320.750,-18.562,-94.312,-0.671,0.565,1.499,-4.970,11.070,-1.060,-1.980,1.750,-0.400,-24.688,-31.375,4.500,-2.990,9.310,-0.650,27,0,0,1,1
14280,319.500,-17.750,-94.000,-0.735,0.535,1.467,-4.750,11.320,-1.160,-1.900,1.960,-0.560,-24.688,-31.375,4.500,-2.850,9.360,-0.600,27,0,0,1,1
14290,318.250,-16.875,-93.688,-0.718,0.416,1.452,-4.680,11.420,-1.280,-1.960,2.010,-0.730,-24.688,-31.375,4.500,-2.720,9.400,-0.550,27,0,0,1,1
14300,317.062,-16.062,-93.312,-0.711,0.248,1.482,-5.010,11.070,-0.680,-2.430,1.620,-0.190,-24.688,-31.375,4.500,-2.580,9.440,-0.490,27,0,0,1,1
14309,316.000,-15.250,-92.938,-0.711,0.248,1.482,-5.090,10.980,-0.560,-2.430,1.620,-0.190,-27.188,-27.250,2.875,-2.440,9.480,-0.420,27,0,0,1,1
14317,315.000,-14.375,-92.500,-0.778,0.085,1.520,-5.090,10.980,-0.560,-2.640,1.490,-0.140,-27.188,-27.250,2.875,-2.440,9.480,-0.420,27,0,0,1,1
14325,314.000,-13.562,-92.062,-0.866,0.057,1.537,-4.160,10.860,-0.380,-1.850,1.330,-0.030,-27.188,-27.250,2.875,-2.300,9.520,-0.340,27,0,0,1,1
14335,313.000,-12.688,-91.500,-0.942,-0.020,1.551,-2.980,11.130,-0.510,-0.820,1.570,-0.260,-27.188,-27.250,2.875,-2.010,9.590,-0.160,27,0,0,1,1
14346,312.188,-11.812,-90.938,-0.957,-0.295,1.547,-0.260,13.940,2.910,0.770,3.230,0.330,-27.188,-27.250,2.875,-1.870,9.620,-0.040,27,0,0,1,1
14357,311.625,-10.938,-90.250,-1.124,-0.743,1.578,-0.260,13.940,2.910,1.600,4.310,2.950,-27.188,-27.250,2.875,-1.870,9.620,-0.040,27,0,0,1,1
14364,311.125,-10.062,-89.312,-1.428,-0.957,1.583,-0.010,16.510,1.440,1.700,6.850,1.330,-28.000,-26.750,3.250,-1.720,9.650,0.100,27,0,0,1,1
14372,311.125,-10.062,-89.312,-0.470,-1.473,1.265,-9.560,19.920,-10.420,-7.950,10.240,-10.600,-28.000,-26.750,3.250,-1.600,9.670,0.170,27,0,0,1,1
14381,311.188,-9.375,-88.938,1.162,-1.896,0.656,-17.930,16.650,-8.080,-16.390,6.970,-8.180,-28.000,-26.750,3.250,-1.530,9.680,0.090,27,0,0,1,1
14391,311.938,-9.000,-89.438,1.117,-0.819,0.144,-21.570,15.170,-5.120,-20.050,5.480,-5.130,-28.000,-26.750,3.250,-1.520,9.680,0.000,27,0,0,1,1
14401,312.375,-8.938,-89.938,0.103,0.675,0.265,-16.420,14.460,-3.080,-14.920,4.770,-3.070,-28.000,-26.750,3.250,-1.490,9.690,-0.010,27,0,0,1,1
14410,311.875,-8.750,-90.062,0.103,0.675,0.265,-1.920,14.200,-4.140,-14.920,4.770,-3.070,-28.000,-26.750,3.250,-1.420,9.700,0.020,27,0,0,1,1
14417,310.500,-8.312,-89.812,-0.653,1.506,0.844,-1.920,14.200,-4.140,-0.490,4.490,-4.160,-29.500,-24.250,2.000,-1.420,9.700,0.020,27,0,0,1,1
14425,309.250,-7.750,-89.562,-0.718,1.302,0.968,-0.480,13.180,-2.540,0.840,3.470,-2.620,-29.500,-24.250,2.000,-1.320,9.710,0.070,27,0,0,1,1
14435,308.250,-7.312,-89.312,-0.543,0.870,0.864,-1.640,11.780,-1.380,-0.390,2.060,-1.500,-29.500,-24.250,2.000,-1.170,9.730,0.160,27,0,0,1,1
14446,307.188,-6.875,-89.000,-0.670,0.973,0.812,-1.410,7.260,1.920,-0.490,-1.410,1.070,-29.500,-24.250,2.000,-1.100,9.740,0.220,27,0,0,1,1
14457,306.125,-6.438,-88.625,-0.760,1.100,0.803,-1.410,7.260,1.920,-0.310,-2.470,1.700,-29.500,-24.250,2.000,-1.100,9.740,0.220,27,0,0,1,1
14465,305.062,-6.000,-88.375,-0.650,1.070,0.824,-1.290,7.720,1.800,-0.260,-2.020,1.530,-30.562,-23.375,1.688,-1.020,9.740,0.270,27,0,0,1,1
14472,305.062,-6.000,-88.375,-0.305,1.021,0.930,-1.610,7.520,1.740,-0.670,-2.220,1.450,-30.562,-23.375,1.688,-0.940,9.750,0.290,27,0,0,1,1
14481,303.938,-5.500,-88.250,-0.115,1.033,0.993,-3.690,7.350,1.100,-2.840,-2.410,0.800,-30.562,-23.375,1.688,-0.840,9.760,0.290,27,0,0,1,1
14492,302.875,-4.938,-88.250,-0.043,0.970,0.984,-3.480,7.150,1.240,-2.720,-2.610,0.950,-30.562,-23.375,1.688,-0.750,9.770,0.290,27,0,0,1,1
14507,300.812,-3.938,-88.188,-0.242,0.880,0.930,-2.070,7.590,1.890,-1.400,-2.180,1.580,-30.562,-23.375,1.688,-0.670,9.770,0.300,27,0,0,1,1
14514,299.938,-3.438,-87.875,-0.525,0.744,0.834,-0.320,8.540,2.300,0.270,-1.230,1.940,-33.562,-21.062,0.000,-0.590,9.780,0.350,27,0,0,1,1
14522,299.938,-3.438,-87.875,-0.612,0.443,0.738,2.370,10.150,1.240,2.900,0.370,0.830,-33.562,-21.062,0.000,-0.520,9.780,0.400,27,0,0,1,1
14531,299.250,-3.062,-87.562,-0.596,0.187,0.666,2.690,10.500,0.950,3.160,0.710,0.490,-33.562,-21.062,0.000,-0.460,9.780,0.460,27,0,0,1,1
14541,298.750,-2.688,-87.250,-0.540,0.022,0.661,2.700,10.850,0.840,3.100,1.070,0.320,-33.562,-21.062,0.000,-0.400,9.780,0.510,27,0,0,1,1
14551,298.375,-2.312,-86.938,-0.429,-0.096,0.745,2.630,10.710,0.560,2.970,0.920,0.000,-33.562,-21.062,0.000,-0.330,9.780,0.550,27,0,0,1,1
14560,298.000,-1.938,-86.688,-0.429,-0.096,0.745,2.520,10.080,0.650,2.970,0.920,0.000,-33.562,-21.062,0.000,-0.250,9.780,0.590,27,0,0,1,1
14567,297.625,-1.438,-86.500,-0.370,-0.161,0.824,2.520,10.080,0.650,2.770,0.300,0.060,-35.062,-19.062,-1.500,-0.250,9.780,0.590,27,0,0,1,1
14575,297.250,-1.000,-86.250,-0.394,-0.184,0.839,2.420,9.470,1.000,2.590,-0.300,0.370,-35.062,-19.062,-1.500,-0.170,9.780,0.630,27,0,0,1,1
14585,296.875,-0.500,-86.062,-0.421,-0.202,0.828,2.260,9.170,1.350,2.360,-0.600,0.680,-35.062,-19.062,-1.500,-0.010,9.780,0.710,27,0,0,1,1
14596,296.562,-0.062,-85.812,-0.421,-0.245,0.800,0.770,9.380,1.920,1.280,-0.580,1.050,-35.062,-19.062,-1.500,0.050,9.770,0.750,27,0,0,1,1
14607,296.250,0.312,-85.562,-0.432,-0.242,0.759,0.770,9.380,1.920,0.710,-0.390,1.170,-35.062,-19.062,-1.500,0.050,9.770,0.750,27,0,0,1,1
14615,296.000,0.688,-85.312,-0.472,-0.242,0.719,0.540,9.510,1.940,0.410,-0.250,1.150,-36.000,-18.688,-0.688,0.120,9.770,0.790,27,0,0,1,1
14622,296.000,0.688,-85.312,-0.520,-0.255,0.692,0.070,9.750,2.200,-0.120,-0.010,1.350,-36.000,-18.688,-0.688,0.190,9.760,0.840,27,0,0,1,1
14631,295.750,1.125,-85.000,-0.536,-0.311,0.593,0.260,9.700,2.170,0.010,-0.050,1.280,-36.000,-18.688,-0.688,0.250,9.760,0.890,27,0,0,1,1
14641,295.562,1.438,-84.750,-0.542,-0.446,0.481,0.540,9.710,2.200,0.230,-0.040,1.250,-36.000,-18.688,-0.688,0.300,9.750,0.940,27,0,0,1,1
14652,295.562,1.750,-84.438,-0.555,-0.592,0.436,0.600,9.690,2.070,0.250,-0.050,1.080,-36.000,-18.688,-0.688,0.350,9.740,0.990,27,0,0,1,1
14660,295.625,2.000,-84.125,-0.555,-0.592,0.436,0.670,9.480,1.650,0.250,-0.050,1.080,-36.250,-17.000,-2.188,0.390,9.740,1.040,27,0,0,1,1
14668,295.750,2.312,-83.875,-0.512,-0.710,0.427,0.670,9.480,1.650,0.270,-0.250,0.610,-36.250,-17.000,-2.188,0.440,9.730,1.080,27,0,0,1,1
14676,295.875,2.562,-83.625,-0.446,-0.776,0.435,0.590,9.420,1.300,0.150,-0.310,0.220,-36.250,-17.000,-2.188,0.500,9.730,1.110,27,0,0,1,1
14686,296.000,2.875,-83.438,-0.395,-0.755,0.481,0.220,9.380,1.020,-0.270,-0.340,-0.080,-36.250,-17.000,-2.188,0.550,9.720,1.140,27,0,0,1,1
14697,296.062,3.188,-83.250,-0.388,-0.662,0.495,0.380,9.410,1.480,-0.500,-0.350,-0.060,-36.250,-17.000,-2.188,0.600,9.710,1.180,27,0,0,1,1
14708,296.125,3.500,-83.000,-0.405,-0.567,0.502,0.380,9.410,1.480,-0.220,-0.300,0.300,-36.250,-17.000,-2.188,0.600,9.710,1.180,27,0,0,1,1
14715,296.062,3.812,-82.812,-0.409,-0.466,0.526,0.660,9.370,1.570,0.000,-0.330,0.350,-37.500,-17.062,1.750,0.660,9.700,1.210,27,0,0,1,1
14723,296.062,3.812,-82.812,-0.429,-0.442,0.541,0.890,9.390,1.570,0.170,-0.300,0.310,-37.500,-17.062,1.750,0.710,9.690,1.250,27,0,0,1,1
14732,296.000,4.188,-82.625,-0.427,-0.495,0.559,1.110,9.460,1.320,0.330,-0.220,0.020,-37.500,-17.062,1.750,0.770,9.690,1.290,27,0,0,1,1
14742,295.938,4.500,-82.375,-0.427,-0.560,0.591,1.160,9.480,1.100,0.320,-0.190,-0.220,-37.500,-17.062,1.750,0.830,9.680,1.320,27,0,0,1,1
14752,295.875,4.875,-82.188,-0.420,-0.598,0.595,1.250,9.410,1.190,0.350,-0.250,-0.160,-37.500,-17.062,1.750,0.900,9.660,1.360,27,0,0,1,1
14761,295.875,5.250,-81.938,-0.420,-0.598,0.595,1.300,9.380,1.350,0.350,-0.250,-0.160,-38.875,-16.562,0.875,0.960,9.650,1.390,27,0,0,1,1
14768,295.875,5.625,-81.750,-0.388,-0.622,0.572,1.300,9.380,1.350,0.340,-0.270,-0.030,-38.875,-16.562,0.875,0.960,9.650,1.390,27,0,0,1,1
14776,295.875,6.000,-81.562,-0.367,-0.646,0.574,1.230,9.510,1.180,0.200,-0.120,-0.230,-38.875,-16.562,0.875,1.020,9.640,1.420,27,0,0,1,1
14786,295.875,6.375,-81.438,-0.364,-0.682,0.555,1.070,9.520,1.280,-0.010,-0.100,-0.160,-38.875,-16.562,0.875,1.140,9.620,1.470,27,0,0,1,1
14797,295.938,6.688,-81.250,-0.396,-0.698,0.511,1.010,9.540,1.580,-0.130,-0.070,0.100,-38.875,-16.562,0.875,1.190,9.610,1.500,27,0,0,1,1
14807,296.062,7.000,-81.062,-0.410,-0.670,0.466,1.160,9.570,1.670,-0.030,-0.040,0.160,-38.875,-16.562,0.875,1.190,9.610,1.500,27,0,0,1,1
