t_ms,euler_x,euler_y,euler_z,gyro_x,gyro_y,gyro_z,accel_x,accel_y,accel_z,linacc_x,linacc_y,linacc_z,mag_x,mag_y,mag_z,grav_x,grav_y,grav_z,temp_c,cal_sys,cal_gyro,cal_accel,cal_mag
3174,359.062,2.750,-88.188,0.014,-0.027,0.008,0.460,9.660,0.340,-0.010,-0.120,0.040,-29.500,5.562,3.375,0.470,9.790,0.300,26,0,0,0,0
3184,359.062,2.750,-88.188,0.013,-0.026,0.009,0.470,9.670,0.280,0.000,-0.110,-0.010,-29.500,5.562,3.375,0.470,9.790,0.300,26,0,0,0,0
3195,359.062,2.750,-88.188,0.012,-0.023,0.009,0.450,9.680,0.320,-0.010,-0.100,0.010,-29.500,5.562,3.375,0.470,9.790,0.300,26,0,0,0,0
3206,359.062,2.750,-88.188,0.012,-0.016,0.009,0.440,9.700,0.340,-0.030,-0.080,0.040,-29.500,5.562,3.375,0.470,9.790,0.300,26,0,0,0,0
3215,359.125,2.750,-88.188,0.011,-0.015,0.009,0.450,9.650,0.330,-0.010,-0.130,0.030,-28.000,5.562,3.062,0.470,9.790,0.300,26,0,0,0,0
3225,359.125,2.750,-88.188,0.007,-0.014,0.008,0.460,9.690,0.280,0.000,-0.080,0.000,-28.000,5.562,3.062,0.470,9.790,0.300,26,0,0,0,0
3236,359.125,2.750,-88.188,0.003,-0.011,0.007,0.430,9.660,0.330,0.000,-0.090,-0.010,-28.000,5.562,3.062,0.470,9.790,0.300,26,0,0,0,0
3246,359.125,2.750,-88.188,0.000,-0.007,0.003,0.400,9.640,0.370,-0.040,-0.120,0.030,-28.000,5.562,3.062,0.470,9.790,0.300,26,0,0,0,0
3257,359.125,2.750,-88.188,0.000,-0.009,0.001,0.400,9.640,0.370,-0.070,-0.140,0.070,-28.000,5.562,3.062,0.470,9.790,0.300,26,0,0,0,0
3265,359.125,2.750,-88.188,0.007,-0.004,0.001,0.490,9.640,0.380,-0.030,-0.150,0.080,-28.000,5.250,2.188,0.470,9.790,0.300,26,0,0,0,0
3276,359.125,2.750,-88.188,0.003,-0.005,0.007,0.510,9.700,0.280,0.020,-0.140,0.080,-28.000,5.250,2.188,0.470,9.790,0.300,26,0,0,0,0
3286,359.125,2.750,-88.188,0.000,-0.003,0.007,0.600,9.690,0.350,0.030,-0.080,-0.010,-28.000,5.250,2.188,0.470,9.790,0.300,26,0,0,0,0
3296,359.125,2.750,-88.188,0.004,-0.001,0.002,0.570,9.670,0.370,0.120,-0.090,0.050,-28.000,5.250,2.188,0.470,9.790,0.300,26,0,0,0,0
3307,359.125,2.750,-88.188,0.005,-0.010,0.002,0.510,9.630,0.370,0.090,-0.110,0.070,-28.000,5.250,2.188,0.470,9.790,0.300,26,0,0,0,0
3316,359.125,2.750,-88.188,0.009,-0.013,0.001,0.520,9.690,0.360,0.030,-0.150,0.070,-27.188,5.562,3.375,0.470,9.790,0.300,26,0,0,0,0
3327,359.125,2.750,-88.188,0.011,-0.014,0.002,0.510,9.730,0.280,0.040,-0.090,0.060,-27.188,5.562,3.375,0.470,9.790,0.290,26,0,0,0,0
3337,359.125,2.750,-88.188,0.011,-0.015,0.004,0.450,9.710,0.310,0.040,-0.060,-0.010,-27.188,5.562,3.375,0.470,9.790,0.290,26,0,0,0,0
3348,359.125,2.750,-88.188,0.010,-0.015,0.008,0.470,9.630,0.320,0.000,-0.150,0.020,-27.188,5.562,3.375,0.470,9.790,0.290,26,0,0,0,0
3358,359.125,2.750,-88.188,0.007,-0.012,0.007,0.500,9.660,0.360,0.000,-0.150,0.020,-27.188,5.562,3.375,0.470,9.790,0.290,26,0,0,0,0
3367,359.125,2.750,-88.188,0.008,-0.009,0.004,0.480,9.690,0.380,0.020,-0.120,0.060,-28.250,6.375,2.688,0.470,9.790,0.290,26,0,0,0,0
3377,359.125,2.750,-88.188,0.007,-0.011,0.007,0.450,9.700,0.300,0.010,-0.090,0.080,-28.250,6.375,2.688,0.470,9.790,0.290,26,0,0,0,0
3387,359.188,2.750,-88.250,0.012,-0.015,0.002,0.510,9.640,0.340,-0.010,-0.080,0.000,-28.250,6.375,2.688,0.470,9.790,0.290,26,0,0,0,0
3398,359.188,2.750,-88.250,0.013,-0.021,0.003,0.550,9.680,0.380,0.030,-0.140,0.040,-28.250,6.375,2.688,0.470,9.790,0.290,26,0,0,0,0
3408,359.188,2.750,-88.250,0.009,-0.021,0.004,0.540,9.670,0.370,0.070,-0.100,0.080,-29.375,5.562,3.062,0.470,9.790,0.290,26,0,0,0,0
3417,359.188,2.750,-88.250,0.013,-0.016,0.003,0.600,9.660,0.340,0.060,-0.110,0.080,-29.375,5.562,3.062,0.470,9.790,0.290,26,0,0,0,0
3427,359.188,2.750,-88.250,0.016,-0.015,0.000,0.590,9.670,0.290,0.120,-0.120,0.050,-29.375,5.562,3.062,0.470,9.790,0.290,26,0,0,0,0
3437,359.188,2.750,-88.250,0.014,-0.016,0.000,0.620,9.690,0.320,0.120,-0.110,0.000,-29.375,5.562,3.062,0.470,9.790,0.290,26,0,0,0,0
3448,359.188,2.750,-88.250,0.011,-0.020,-0.001,0.580,9.680,0.370,0.140,-0.090,0.020,-29.375,5.562,3.062,0.470,9.790,0.280,26,0,0,0,0
3458,359.250,2.750,-88.250,0.011,-0.024,0.001,0.580,9.680,0.370,0.110,-0.100,0.080,-29.375,5.562,3.062,0.470,9.790,0.280,26,0,0,0,0
3466,359.250,2.750,-88.250,0.013,-0.027,0.002,0.600,9.660,0.370,0.120,-0.120,0.080,-28.562,6.000,2.688,0.470,9.790,0.280,26,0,0,0,0
3473,359.250,2.750,-88.312,0.012,-0.025,0.003,0.570,9.700,0.350,0.090,-0.080,0.070,-28.562,6.000,2.688,0.470,9.790,0.280,26,0,0,0,0
3482,359.250,2.750,-88.312,0.014,-0.026,0.005,0.560,9.680,0.250,0.090,-0.100,-0.030,-28.562,6.000,2.688,0.470,9.790,0.280,26,0,0,0,0
3492,359.250,2.750,-88.312,0.014,-0.025,0.008,0.540,9.660,0.250,0.060,-0.120,-0.030,-28.562,6.000,2.688,0.470,9.790,0.280,26,0,0,0,0
3502,359.312,2.750,-88.312,0.014,-0.025,0.007,0.410,9.650,0.310,-0.060,-0.130,0.020,-28.562,6.000,2.688,0.470,9.790,0.280,26,0,0,0,0
3510,359.312,2.750,-88.312,0.014,-0.025,0.007,0.420,9.700,0.320,-0.050,-0.080,0.030,-28.000,6.375,3.062,0.470,9.790,0.280,26,0,0,0,0
3520,359.312,2.750,-88.312,0.016,-0.022,0.007,0.410,9.680,0.310,-0.060,-0.100,0.030,-28.000,6.375,3.062,0.470,9.790,0.270,26,0,0,0,0
3529,359.312,2.750,-88.312,0.015,-0.021,0.007,0.450,9.650,0.220,-0.010,-0.130,-0.040,-28.000,6.375,3.062,0.470,9.790,0.270,26,0,0,0,0
3539,359.312,2.750,-88.312,0.015,-0.024,0.007,0.480,9.640,0.230,0.000,-0.140,-0.030,-28.000,6.375,3.062,0.470,9.790,0.270,26,0,0,0,0
3549,359.375,2.750,-88.375,0.013,-0.028,0.004,0.480,9.670,0.270,0.000,-0.110,0.000,-28.000,6.375,3.062,0.470,9.790,0.270,26,0,0,0,0
3558,359.375,2.750,-88.375,0.004,-0.021,0.007,0.480,9.680,0.310,0.000,-0.110,0.000,-28.000,5.250,3.875,0.470,9.790,0.270,26,0,0,0,0
3567,359.375,2.750,-88.375,0.002,-0.015,0.001,0.520,9.700,0.290,0.010,-0.100,0.030,-28.000,5.250,3.875,0.470,9.790,0.270,26,0,0,0,0
3577,359.375,2.750,-88.375,-0.003,-0.010,0.002,0.480,9.690,0.210,0.040,-0.080,0.010,-28.000,5.250,3.875,0.470,9.790,0.270,26,0,0,0,0
3588,359.375,2.750,-88.375,-0.005,-0.007,0.001,0.470,9.650,0.280,0.000,-0.090,-0.060,-28.000,5.250,3.875,0.470,9.790,0.270,26,0,0,0,0
3598,359.375,2.750,-88.375,0.001,-0.004,0.002,0.480,9.690,0.330,0.000,-0.130,0.000,-28.000,5.250,3.875,0.470,9.790,0.270,26,0,0,0,0
3608,359.375,2.750,-88.375,-0.002,-0.002,0.003,0.460,9.700,0.320,0.000,-0.090,0.060,-28.000,5.250,3.875,0.470,9.790,0.270,26,0,0,0,0
3617,359.375,2.750,-88.375,-0.005,0.004,0.005,0.490,9.680,0.310,0.000,-0.080,0.040,-28.562,6.000,3.875,0.470,9.790,0.270,26,0,0,0,0
3628,359.375,2.750,-88.375,-0.009,0.011,0.005,0.530,9.660,0.230,0.010,-0.100,0.030,-28.562,6.000,3.875,0.470,9.790,0.270,26,0,0,0,0
3638,359.375,2.750,-88.375,-0.011,0.014,0.009,0.560,9.700,0.260,0.050,-0.120,-0.040,-28.562,6.000,3.875,0.470,9.790,0.270,26,0,0,0,0
3648,359.375,2.750,-88.312,-0.012,0.016,0.004,0.550,9.690,0.350,0.080,-0.080,-0.010,-28.562,6.000,3.875,0.470,9.790,0.280,26,0,0,0,0
3658,359.312,2.750,-88.312,-0.015,0.020,0.008,0.520,9.680,0.360,0.070,-0.090,0.070,-28.562,6.000,3.875,0.470,9.790,0.280,26,0,0,0,0
3667,359.312,2.750,-88.312,-0.013,0.019,0.009,0.470,9.650,0.360,0.040,-0.100,0.080,-28.250,6.375,2.188,0.470,9.790,0.280,26,0,0,0,0
3678,359.312,2.750,-88.312,-0.010,0.019,0.003,0.540,9.680,0.310,0.000,-0.130,0.080,-28.250,6.375,2.188,0.470,9.790,0.280,26,0,0,0,0
3688,359.312,2.750,-88.312,-0.012,0.019,0.004,0.540,9.670,0.340,0.060,-0.100,0.020,-28.250,6.375,2.188,0.470,9.790,0.280,26,0,0,0,0
3698,359.312,2.750,-88.312,-0.009,0.012,0.001,0.530,9.690,0.310,0.060,-0.110,0.060,-28.250,6.375,2.188,0.470,9.790,0.280,26,0,0,0,0
3708,359.312,2.750,-88.312,-0.007,0.011,0.000,0.560,9.660,0.340,0.050,-0.090,0.030,-28.250,6.375,2.188,0.470,9.790,0.280,26,0,0,0,0
3717,359.312,2.750,-88.312,-0.010,0.016,0.002,0.560,9.690,0.290,0.080,-0.120,0.060,-27.188,5.250,3.875,0.470,9.790,0.280,26,0,0,0,0
3728,359.250,2.750,-88.312,-0.014,0.014,0.001,0.550,9.690,0.210,0.090,-0.090,0.000,-27.188,5.250,3.875,0.470,9.790,0.280,26,0,0,0,0
3738,359.250,2.750,-88.312,-0.010,0.009,-0.001,0.520,9.650,0.270,0.070,-0.090,-0.060,-27.188,5.250,3.875,0.470,9.790,0.280,26,0,0,0,0
3748,359.250,2.750,-88.312,-0.009,0.009,0.001,0.500,9.710,0.330,0.020,-0.070,0.040,-27.188,5.250,3.875,0.470,9.790,0.280,26,0,0,0,0
3759,359.250,2.750,-88.312,-0.011,0.010,-0.001,0.550,9.700,0.330,0.020,-0.070,0.040,-27.188,5.250,3.875,0.470,9.790,0.280,26,0,0,0,0
3767,359.250,2.750,-88.312,-0.014,0.020,-0.001,0.520,9.670,0.360,0.070,-0.080,0.040,-29.375,5.562,2.188,0.470,9.790,0.280,26,0,0,0,0
3778,359.250,2.750,-88.250,-0.014,0.015,0.002,0.560,9.650,0.250,0.040,-0.110,0.080,-29.375,5.562,2.188,0.470,9.790,0.290,26,0,0,0,0
3788,359.250,2.750,-88.250,-0.016,0.019,0.000,0.590,9.720,0.340,0.080,-0.130,-0.030,-29.375,5.562,2.188,0.470,9.790,0.290,26,0,0,0,0
3798,359.250,2.750,-88.250,-0.015,0.021,-0.001,0.560,9.700,0.330,0.110,-0.060,0.050,-29.375,5.562,2.188,0.470,9.790,0.290,26,0,0,0,0
3808,359.250,2.750,-88.250,-0.013,0.019,-0.003,0.510,9.630,0.370,0.080,-0.080,0.040,-29.375,5.562,2.188,0.470,9.790,0.290,26,0,0,0,0
3817,359.250,2.750,-88.250,-0.012,0.015,-0.004,0.520,9.650,0.340,0.030,-0.150,0.070,-29.375,5.250,3.062,0.470,9.790,0.290,26,0,0,0,0
3828,359.188,2.750,-88.250,-0.013,0.019,-0.005,0.550,9.700,0.290,0.040,-0.130,0.050,-29.375,5.250,3.062,0.470,9.790,0.290,26,0,0,0,0
3838,359.188,2.750,-88.250,-0.015,0.019,-0.008,0.520,9.710,0.290,0.070,-0.080,0.000,-29.375,5.250,3.062,0.470,9.790,0.290,26,0,0,0,0
3848,359.188,2.750,-88.250,-0.010,0.019,-0.004,0.480,9.640,0.320,0.040,-0.070,0.000,-29.375,5.250,3.062,0.470,9.790,0.290,26,0,0,0,0
3859,359.188,2.750,-88.250,-0.009,0.014,-0.004,0.480,9.670,0.310,0.010,-0.140,0.020,-29.375,5.250,3.062,0.470,9.790,0.290,26,0,0,0,0
3867,359.188,2.750,-88.250,-0.007,0.020,-0.007,0.510,9.680,0.370,0.010,-0.110,0.010,-29.375,5.250,1.875,0.470,9.790,0.290,26,0,0,0,0
3878,359.188,2.750,-88.250,-0.008,0.014,-0.010,0.510,9.690,0.290,0.030,-0.100,0.070,-29.375,5.250,1.875,0.470,9.790,0.290,26,0,0,0,0
3888,359.125,2.750,-88.250,-0.007,0.016,-0.010,0.450,9.640,0.350,0.030,-0.090,0.000,-29.375,5.250,1.875,0.470,9.790,0.290,26,0,0,0,0
3898,359.125,2.750,-88.250,-0.002,0.012,-0.011,0.480,9.680,0.350,-0.020,-0.140,0.060,-29.375,5.250,1.875,0.470,9.790,0.290,26,0,0,0,0
3909,359.125,2.750,-88.250,-0.003,0.013,-0.011,0.550,9.690,0.370,0.010,-0.100,0.050,-29.375,5.250,1.875,0.470,9.790,0.290,26,0,0,0,0
3918,359.188,2.750,-88.250,-0.007,0.009,-0.012,0.570,9.650,0.350,0.070,-0.090,0.080,-28.250,5.250,3.062,0.470,9.790,0.290,26,0,0,0,0
3928,359.188,2.750,-88.250,-0.009,0.009,-0.005,0.560,9.670,0.280,0.100,-0.130,0.050,-28.250,5.250,3.062,0.470,9.790,0.290,26,0,0,0,0
3938,359.188,2.750,-88.250,-0.004,0.008,-0.008,0.570,9.690,0.370,0.080,-0.110,-0.010,-28.250,5.250,3.062,0.470,9.790,0.290,26,0,0,0,0
3949,359.188,2.750,-88.250,-0.001,0.005,-0.010,0.570,9.670,0.390,0.100,-0.110,0.090,-28.250,5.250,3.062,0.470,9.790,0.290,26,0,0,0,0
3959,359.188,2.750,-88.250,-0.005,0.005,-0.009,0.560,9.630,0.420,0.100,-0.110,0.090,-28.250,5.250,3.062,0.470,9.790,0.290,26,0,0,0,0
3967,359.188,2.750,-88.250,-0.004,0.003,-0.011,0.460,9.610,0.310,0.080,-0.150,0.120,-29.000,5.250,2.688,0.470,9.790,0.290,26,0,0,0,0
3978,359.188,2.750,-88.250,0.000,-0.003,-0.009,0.470,9.670,0.260,0.000,-0.170,0.010,-29.000,5.250,2.688,0.470,9.790,0.290,26,0,0,0,0
3988,359.188,2.750,-88.250,0.001,0.002,-0.008,0.500,9.730,0.280,0.000,-0.110,-0.020,-29.000,5.250,2.688,0.470,9.790,0.290,26,0,0,0,0
3999,359.188,2.750,-88.250,-0.001,0.003,-0.004,0.480,9.700,0.340,0.010,-0.080,0.050,-29.000,5.250,2.688,0.470,9.790,0.290,26,0,0,0,0
4009,359.188,2.750,-88.250,-0.004,0.010,-0.003,0.470,9.650,0.380,0.010,-0.080,0.050,-28.562,6.375,3.875,0.470,9.790,0.290,26,0,0,0,0
4018,359.188,2.750,-88.250,-0.004,0.011,-0.005,0.460,9.630,0.380,0.000,-0.130,0.080,-28.562,6.375,3.875,0.470,9.790,0.290,26,0,0,0,0
4028,359.125,2.750,-88.250,-0.004,0.019,-0.007,0.500,9.680,0.350,0.000,-0.150,0.080,-28.562,6.375,3.875,0.470,9.790,0.290,26,0,0,0,0
4039,359.125,2.750,-88.250,-0.003,0.021,-0.008,0.580,9.690,0.350,0.030,-0.100,0.060,-28.562,6.375,3.875,0.470,9.790,0.290,26,0,0,0,0
4049,359.125,2.750,-88.250,-0.004,0.021,-0.013,0.550,9.660,0.370,0.110,-0.090,0.060,-28.562,6.375,3.875,0.470,9.790,0.290,26,0,0,0,0
4059,359.125,2.688,-88.250,0.000,0.019,-0.012,0.580,9.670,0.350,0.080,-0.120,0.080,-28.562,6.375,3.875,0.460,9.790,0.290,26,0,0,0,0
4068,359.125,2.688,-88.250,0.003,0.010,-0.011,0.530,9.680,0.310,0.110,-0.110,0.050,-28.250,5.250,2.688,0.460,9.790,0.290,26,0,0,0,0
4078,359.125,2.688,-88.250,-0.001,0.009,-0.005,0.480,9.690,0.290,0.060,-0.100,0.010,-28.250,5.250,2.688,0.460,9.790,0.290,26,0,0,0,0
4089,359.125,2.688,-88.250,-0.003,0.004,-0.003,0.450,9.650,0.330,0.010,-0.090,0.000,-28.250,5.250,2.688,0.460,9.790,0.290,26,0,0,0,0
4099,359.125,2.688,-88.250,-0.004,0.001,-0.005,0.430,9.670,0.350,-0.010,-0.130,0.040,-28.250,5.250,2.688,0.460,9.790,0.290,26,0,0,0,0
4109,359.125,2.688,-88.250,0.002,0.002,-0.007,0.420,9.670,0.360,-0.030,-0.110,0.060,-28.562,5.250,2.688,0.460,9.790,0.290,26,0,0,0,0
4118,359.125,2.688,-88.250,0.007,-0.001,-0.003,0.420,9.680,0.350,-0.040,-0.110,0.060,-28.562,5.250,2.688,0.460,9.790,0.290,26,0,0,0,0
4129,359.125,2.688,-88.250,0.002,-0.001,-0.002,0.440,9.670,0.250,-0.040,-0.100,0.060,-28.562,5.250,2.688,0.460,9.790,0.290,26,0,0,0,0
4139,359.125,2.688,-88.250,0.007,0.004,-0.004,0.430,9.660,0.280,-0.030,-0.120,-0.010,-28.562,5.250,2.688,0.460,9.790,0.290,26,0,0,0,0
4149,359.125,2.688,-88.250,0.007,0.002,-0.002,0.410,9.730,0.310,-0.050,-0.060,0.010,-28.562,5.250,2.688,0.460,9.790,0.290,26,0,0,0,0
4159,359.125,2.688,-88.250,0.001,0.007,-0.004,0.420,9.690,0.420,-0.050,-0.060,0.010,-28.562,5.250,2.688,0.460,9.790,0.290,26,0,0,0,0
4168,359.125,2.688,-88.250,0.002,0.004,-0.005,0.470,9.660,0.380,-0.040,-0.090,0.120,-28.250,5.562,2.688,0.460,9.790,0.290,26,0,0,0,0
4179,359.125,2.688,-88.250,0.000,0.009,-0.003,0.500,9.650,0.320,0.000,-0.120,0.080,-28.250,5.562,2.688,0.460,9.790,0.290,26,0,0,0,0
4189,359.125,2.688,-88.250,-0.001,0.007,0.002,0.530,9.660,0.340,0.030,-0.130,0.020,-28.250,5.562,2.688,0.460,9.790,0.290,26,0,0,0,0
4199,359.125,2.688,-88.250,0.001,0.009,-0.001,0.530,9.690,0.360,0.060,-0.090,0.070,-28.250,5.562,2.688,0.460,9.790,0.290,26,0,0,0,0
4209,359.125,2.688,-88.250,0.003,0.002,0.001,0.540,9.700,0.390,0.060,-0.090,0.070,-28.250,6.750,2.688,0.460,9.790,0.290,26,0,0,0,0
4218,359.125,2.688,-88.250,0.001,0.004,0.005,0.490,9.640,0.340,0.070,-0.080,0.090,-28.250,6.750,2.688,0.460,9.790,0.290,26,0,0,0,0
4229,359.125,2.688,-88.250,0.002,0.003,0.004,0.500,9.660,0.300,0.020,-0.140,0.050,-28.250,6.750,2.688,0.460,9.790,0.290,26,0,0,0,0
4239,359.125,2.688,-88.250,0.004,0.004,0.007,0.510,9.680,0.330,0.030,-0.120,0.000,-28.250,6.750,2.688,0.460,9.790,0.290,26,0,0,0,0
4249,359.125,2.688,-88.250,0.005,0.003,0.005,0.530,9.690,0.370,0.060,-0.090,0.070,-28.250,6.750,2.688,0.460,9.790,0.290,26,0,0,0,0
4259,359.125,2.688,-88.250,0.002,0.004,0.004,0.510,9.650,0.350,0.060,-0.090,0.070,-28.250,6.750,2.688,0.460,9.790,0.290,26,0,0,0,0
4268,359.125,2.688,-88.250,0.005,0.000,0.005,0.560,9.660,0.380,0.040,-0.130,0.060,-28.562,6.000,3.062,0.460,9.790,0.290,26,0,0,0,0
4279,359.125,2.688,-88.250,0.004,0.001,0.005,0.600,9.650,0.310,0.090,-0.120,0.080,-28.562,6.000,3.062,0.460,9.790,0.290,26,0,0,0,0
4289,359.125,2.688,-88.250,0.003,0.002,0.007,0.590,9.660,0.390,0.130,-0.130,0.010,-28.562,6.000,3.062,0.460,9.790,0.290,26,0,0,0,0
4299,359.125,2.688,-88.250,0.008,-0.005,0.007,0.560,9.670,0.400,0.090,-0.110,0.100,-28.562,6.000,3.062,0.460,9.790,0.290,26,0,0,0,0
4310,359.125,2.688,-88.250,0.010,-0.007,0.004,0.560,9.670,0.370,0.090,-0.110,0.100,-29.750,6.000,3.062,0.460,9.790,0.290,26,0,0,0,0
4318,359.125,2.688,-88.250,0.010,-0.010,0.008,0.570,9.660,0.380,0.090,-0.110,0.080,-29.750,6.000,3.062,0.460,9.790,0.290,26,0,0,0,0
4329,359.125,2.688,-88.250,0.011,-0.013,0.008,0.560,9.670,0.300,0.110,-0.120,0.080,-29.750,6.000,3.062,0.460,9.790,0.290,26,0,0,0,0
4339,359.125,2.688,-88.250,0.008,-0.014,0.008,0.540,9.690,0.330,0.090,-0.110,0.000,-29.750,6.000,3.062,0.460,9.790,0.290,26,0,0,0,0
4349,359.188,2.688,-88.250,0.009,-0.019,0.005,0.460,9.650,0.360,0.070,-0.090,0.030,-29.750,6.000,3.062,0.460,9.790,0.290,26,0,0,0,0
4360,359.188,2.688,-88.250,0.014,-0.027,0.007,0.460,9.650,0.360,0.000,-0.130,0.060,-29.750,6.000,3.062,0.460,9.790,0.290,26,0,0,0,0
4367,359.188,2.688,-88.250,0.019,-0.035,0.008,0.470,9.690,0.350,0.000,-0.090,0.060,-29.375,5.250,2.188,0.460,9.790,0.290,26,0,0,0,0
4375,359.188,2.688,-88.250,0.020,-0.035,0.005,0.450,9.660,0.320,-0.010,-0.120,0.030,-29.375,5.250,2.188,0.460,9.790,0.290,26,0,0,0,0
4383,359.250,2.688,-88.250,0.025,-0.040,0.005,0.450,9.640,0.210,-0.010,-0.140,-0.070,-29.375,5.250,2.188,0.460,9.790,0.280,26,0,0,0,0
4393,359.250,2.688,-88.250,0.023,-0.043,0.003,0.440,9.650,0.270,-0.020,-0.130,-0.010,-29.375,5.250,2.188,0.460,9.790,0.280,26,0,0,0,0
4403,359.250,2.688,-88.312,0.022,-0.049,0.003,0.450,9.670,0.300,-0.010,-0.110,0.020,-29.375,5.250,2.188,0.460,9.790,0.280,26,0,0,0,0
4411,359.312,2.688,-88.312,0.022,-0.049,0.003,0.440,9.680,0.330,-0.010,-0.110,0.020,-28.250,6.000,3.188,0.470,9.790,0.280,26,0,0,0,0
4419,359.312,2.688,-88.312,0.022,-0.051,0.002,0.440,9.680,0.330,-0.020,-0.100,0.040,-28.250,6.000,3.188,0.470,9.790,0.270,26,0,0,0,0
4427,359.312,2.688,-88.312,0.024,-0.046,0.001,0.460,9.680,0.320,0.000,-0.100,0.040,-28.250,6.000,3.188,0.470,9.790,0.270,26,0,0,0,0
4437,359.375,2.688,-88.375,0.026,-0.050,0.002,0.460,9.700,0.230,0.000,-0.090,-0.040,-28.250,6.000,3.188,0.470,9.790,0.270,26,0,0,0,0
4447,359.375,2.688,-88.375,0.024,-0.056,0.004,0.440,9.680,0.340,0.000,-0.080,0.000,-28.250,6.000,3.188,0.470,9.790,0.270,26,0,0,0,0
4458,359.438,2.750,-88.375,0.023,-0.058,0.002,0.440,9.680,0.340,-0.030,-0.100,0.070,-28.250,6.000,3.188,0.470,9.790,0.270,26,0,0,0,0
4466,359.438,2.750,-88.375,0.024,-0.060,0.001,0.430,9.660,0.320,-0.030,-0.120,0.050,-28.562,6.750,3.375,0.470,9.790,0.260,26,0,0,0,0
4473,359.438,2.750,-88.375,0.019,-0.064,0.001,0.520,9.670,0.280,0.050,-0.110,0.010,-28.562,6.750,3.375,0.470,9.790,0.260,26,0,0,0,0
4481,359.500,2.750,-88.438,0.019,-0.064,0.001,0.540,9.690,0.230,0.070,-0.090,-0.020,-28.562,6.750,3.375,0.470,9.790,0.260,26,0,0,0,0
4491,359.500,2.750,-88.438,0.020,-0.072,0.004,0.490,9.680,0.260,0.020,-0.100,0.000,-28.562,6.750,3.375,0.470,9.790,0.260,26,0,0,0,0
4500,359.562,2.750,-88.438,0.022,-0.069,0.004,0.510,9.680,0.290,0.040,-0.100,0.030,-28.562,6.750,3.375,0.470,9.790,0.260,26,0,0,0,0
4510,359.625,2.750,-88.438,0.020,-0.062,0.008,0.560,9.710,0.310,0.040,-0.100,0.030,-28.562,6.750,3.375,0.470,9.790,0.250,26,0,0,0,0
4518,359.625,2.750,-88.438,0.017,-0.057,0.009,0.560,9.710,0.310,0.090,-0.070,0.050,-28.562,6.250,2.188,0.470,9.790,0.250,26,0,0,0,0
4526,359.625,2.750,-88.438,0.014,-0.041,0.011,0.530,9.690,0.290,0.060,-0.100,0.040,-28.562,6.250,2.188,0.470,9.790,0.250,26,0,0,0,0
4536,359.688,2.750,-88.500,0.014,-0.035,0.010,0.560,9.660,0.220,0.080,-0.120,-0.030,-28.562,6.250,2.188,0.470,9.790,0.250,26,0,0,0,0
4547,359.688,2.750,-88.500,0.009,-0.027,0.012,0.540,9.660,0.250,0.070,-0.120,0.000,-28.562,6.250,2.188,0.470,9.790,0.250,26,0,0,0,0
4557,359.688,2.750,-88.500,0.011,-0.026,0.013,0.540,9.650,0.250,0.060,-0.130,0.000,-28.562,6.250,2.188,0.470,9.790,0.250,26,0,0,0,0
4566,359.688,2.750,-88.500,0.009,-0.020,0.015,0.520,9.670,0.240,0.040,-0.110,0.000,-28.250,4.875,3.500,0.470,9.790,0.250,26,0,0,0,0
4576,359.688,2.750,-88.500,0.002,-0.021,0.012,0.480,9.650,0.250,0.000,-0.130,0.000,-28.250,4.875,3.500,0.470,9.790,0.250,26,0,0,0,0
4587,359.688,2.750,-88.500,0.001,-0.011,0.011,0.440,9.700,0.180,-0.030,-0.080,-0.070,-28.250,4.875,3.500,0.480,9.790,0.250,26,0,0,0,0
4597,359.688,2.750,-88.500,0.003,-0.010,0.011,0.460,9.670,0.220,-0.050,-0.130,-0.030,-28.250,4.875,3.500,0.480,9.790,0.250,26,0,0,0,0
4608,359.688,2.812,-88.500,0.001,-0.003,0.012,0.460,9.670,0.220,-0.010,-0.110,-0.020,-28.250,4.875,3.500,0.480,9.790,0.250,26,0,0,0,0
4617,359.688,2.812,-88.500,-0.003,0.000,0.012,0.440,9.670,0.300,-0.040,-0.110,0.050,-29.375,5.875,3.188,0.480,9.790,0.250,26,0,0,0,0
4628,359.688,2.812,-88.500,-0.005,0.004,0.009,0.530,9.680,0.210,0.020,-0.130,0.000,-29.375,5.875,3.188,0.480,9.790,0.250,26,0,0,0,0
4638,359.688,2.812,-88.500,-0.008,0.007,0.007,0.540,9.690,0.240,0.040,-0.100,-0.040,-29.375,5.875,3.188,0.480,9.790,0.250,26,0,0,0,0
4649,359.688,2.812,-88.500,0.000,0.005,0.003,0.550,9.660,0.200,0.050,-0.090,0.000,-29.375,5.875,3.188,0.480,9.790,0.250,26,0,0,0,0
4659,359.688,2.812,-88.500,0.000,0.001,0.007,0.570,9.690,0.270,0.060,-0.120,-0.050,-29.375,5.875,3.188,0.480,9.790,0.250,26,0,0,0,0
4668,359.688,2.812,-88.500,-0.008,0.010,0.003,0.530,9.680,0.290,0.090,-0.090,0.020,-28.562,5.500,2.250,0.480,9.790,0.250,26,0,0,0,0
4679,359.688,2.812,-88.500,-0.013,0.007,0.005,0.560,9.710,0.170,0.040,-0.100,0.040,-28.562,5.500,2.250,0.480,9.790,0.250,26,0,0,0,0
4689,359.688,2.812,-88.438,-0.017,0.016,0.004,0.540,9.660,0.280,0.070,-0.080,-0.070,-28.562,5.500,2.250,0.480,9.790,0.250,26,0,0,0,0
4700,359.625,2.812,-88.438,-0.023,0.026,0.004,0.570,9.630,0.330,0.050,-0.120,0.020,-28.562,5.500,2.250,0.480,9.790,0.260,26,0,0,0,0
4710,359.625,2.812,-88.438,-0.025,0.035,0.005,0.570,9.630,0.330,0.090,-0.150,0.070,-28.562,5.500,2.250,0.480,9.790,0.260,26,0,0,0,0
4718,359.625,2.812,-88.438,-0.026,0.034,0.004,0.540,9.630,0.360,0.060,-0.150,0.100,-28.000,5.188,3.500,0.480,9.790,0.260,26,0,0,0,0
4726,359.562,2.812,-88.438,-0.022,0.034,0.001,0.520,9.650,0.330,0.040,-0.130,0.070,-28.000,5.188,3.500,0.480,9.790,0.260,26,0,0,0,0
4735,359.562,2.812,-88.375,-0.021,0.029,0.001,0.530,9.650,0.260,0.040,-0.130,0.000,-28.000,5.188,3.500,0.480,9.790,0.260,26,0,0,0,0
4746,359.562,2.812,-88.375,-0.016,0.027,0.002,0.520,9.680,0.300,0.040,-0.100,0.030,-28.000,5.188,3.500,0.480,9.790,0.270,26,0,0,0,0
4757,359.562,2.812,-88.375,-0.014,0.024,0.002,0.550,9.700,0.310,0.060,-0.080,0.040,-28.000,5.188,3.500,0.480,9.790,0.270,26,0,0,0,0
4764,359.562,2.812,-88.375,-0.017,0.024,0.007,0.530,9.700,0.280,0.050,-0.080,0.000,-27.562,6.375,3.500,0.480,9.790,0.270,26,0,0,0,0
4772,359.562,2.812,-88.375,-0.017,0.024,0.007,0.550,9.700,0.260,0.050,-0.080,0.000,-27.562,6.375,3.500,0.480,9.790,0.270,26,0,0,0,0
4780,359.500,2.812,-88.375,-0.013,0.029,0.007,0.530,9.650,0.250,0.060,-0.080,0.000,-27.562,6.375,3.500,0.480,9.790,0.270,26,0,0,0,0
4789,359.500,2.812,-88.375,-0.015,0.035,0.004,0.520,9.690,0.240,0.050,-0.130,-0.010,-27.562,6.375,3.500,0.480,9.790,0.270,26,0,0,0,0
4800,359.500,2.812,-88.312,-0.013,0.040,0.003,0.510,9.670,0.330,0.040,-0.090,-0.020,-27.562,6.375,3.500,0.480,9.790,0.270,26,0,0,0,0
4810,359.438,2.812,-88.312,-0.014,0.036,0.000,0.510,9.670,0.330,0.030,-0.110,0.050,-27.562,6.375,3.500,0.480,9.790,0.280,26,0,0,0,0
4818,359.438,2.812,-88.312,-0.016,0.039,0.000,0.520,9.670,0.310,0.040,-0.110,0.030,-27.562,6.375,2.250,0.480,9.790,0.280,26,0,0,0,0
4825,359.438,2.812,-88.312,-0.012,0.033,0.001,0.470,9.670,0.320,0.000,-0.110,0.040,-27.562,6.375,2.250,0.480,9.790,0.280,26,0,0,0,0
4835,359.375,2.750,-88.312,-0.012,0.040,0.001,0.530,9.690,0.220,0.050,-0.090,-0.050,-27.562,6.375,2.250,0.480,9.790,0.280,26,0,0,0,0
4845,359.375,2.750,-88.312,-0.016,0.050,-0.001,0.540,9.710,0.290,0.060,-0.070,0.000,-27.562,6.375,2.250,0.480,9.790,0.280,26,0,0,0,0
4854,359.312,2.750,-88.312,-0.021,0.065,-0.002,0.540,9.730,0.330,0.060,-0.060,0.040,-27.562,6.375,2.250,0.480,9.790,0.280,26,0,0,0,0
4862,359.312,2.750,-88.312,-0.021,0.065,-0.002,0.560,9.690,0.350,0.060,-0.060,0.040,-28.250,5.562,2.250,0.480,9.790,0.280,26,0,0,0,0
4870,359.312,2.750,-88.250,-0.017,0.060,-0.005,0.560,9.690,0.350,0.070,-0.090,0.060,-28.250,5.562,2.250,0.480,9.790,0.280,26,0,0,0,0
4878,359.250,2.750,-88.250,-0.016,0.049,-0.005,0.490,9.610,0.290,0.010,-0.170,0.000,-28.250,5.562,2.250,0.480,9.790,0.290,26,0,0,0,0
4887,359.250,2.750,-88.250,-0.017,0.045,-0.005,0.430,9.610,0.260,-0.040,-0.170,-0.020,-28.250,5.562,2.250,0.480,9.790,0.290,26,0,0,0,0
4898,359.250,2.750,-88.250,-0.019,0.047,-0.005,0.430,9.660,0.270,-0.040,-0.120,-0.010,-28.250,5.562,2.250,0.480,9.790,0.290,26,0,0,0,0
4909,359.188,2.750,-88.250,-0.017,0.045,-0.007,0.460,9.670,0.330,-0.010,-0.110,0.030,-28.250,5.562,2.250,0.480,9.790,0.290,26,0,0,0,0
4916,359.188,2.750,-88.188,-0.017,0.043,-0.007,0.510,9.700,0.400,0.030,-0.080,0.100,-27.562,6.375,2.250,0.470,9.790,0.290,26,0,0,0,0
4924,359.188,2.750,-88.188,-0.013,0.039,-0.011,0.640,9.680,0.350,0.160,-0.100,0.050,-27.562,6.375,2.250,0.470,9.790,0.300,26,0,0,0,0
4932,359.188,2.750,-88.188,-0.013,0.039,-0.011,0.650,9.670,0.260,0.170,-0.110,-0.030,-27.562,6.375,2.250,0.470,9.790,0.300,26,0,0,0,0
4941,359.188,2.750,-88.188,-0.012,0.032,-0.011,0.750,9.690,0.310,0.270,-0.090,0.010,-27.562,6.375,2.250,0.470,9.790,0.300,26,0,0,0,0
4951,359.125,2.750,-88.188,-0.011,0.024,-0.010,0.730,9.750,0.390,0.250,-0.030,0.090,-27.562,6.375,2.250,0.470,9.790,0.300,26,0,0,0,0
4961,359.125,2.750,-88.188,-0.013,0.025,-0.013,0.730,9.750,0.390,0.250,-0.030,0.090,-27.562,6.375,2.250,0.470,9.790,0.300,26,0,0,0,0
4969,359.125,2.750,-88.188,-0.012,0.026,-0.012,0.660,9.730,0.400,0.180,-0.050,0.090,-28.250,5.250,2.750,0.470,9.790,0.300,26,0,0,0,0
4976,359.062,2.750,-88.188,-0.013,0.023,-0.010,0.560,9.670,0.390,0.080,-0.110,0.080,-28.250,5.250,2.750,0.480,9.790,0.300,26,0,0,0,0
4984,359.062,2.750,-88.188,-0.016,0.016,-0.008,0.450,9.680,0.330,-0.030,-0.100,0.010,-28.250,5.250,2.750,0.480,9.780,0.310,26,0,0,0,0
4993,359.062,2.750,-88.125,-0.012,0.025,-0.008,0.430,9.670,0.370,-0.040,-0.110,0.060,-28.250,5.250,2.750,0.480,9.780,0.310,26,0,0,0,0
5003,359.062,2.750,-88.125,-0.005,0.025,-0.008,0.420,9.620,0.330,-0.050,-0.160,0.010,-28.250,5.250,2.750,0.480,9.780,0.310,26,0,0,0,0
5012,359.062,2.750,-88.125,-0.005,0.025,-0.008,0.420,9.580,0.350,-0.050,-0.160,0.010,-29.000,5.562,2.750,0.480,9.780,0.310,26,0,0,0,0
5020,359.062,2.750,-88.125,-0.003,0.013,-0.010,0.500,9.680,0.320,-0.050,-0.200,0.040,-29.000,5.562,2.750,0.480,9.780,0.310,26,0,0,0,0
5030,359.062,2.750,-88.125,-0.001,0.008,-0.008,0.540,9.760,0.260,0.020,-0.100,0.010,-29.000,5.562,2.750,0.470,9.780,0.310,26,0,0,0,0
5040,359.062,2.750,-88.125,-0.003,0.005,-0.011,0.520,9.710,0.330,0.060,-0.020,-0.040,-29.000,5.562,2.750,0.470,9.780,0.310,26,0,0,0,0
5050,359.062,2.750,-88.125,-0.002,0.002,-0.007,0.480,9.660,0.380,0.040,-0.070,0.010,-29.000,5.562,2.750,0.470,9.780,0.310,26,0,0,0,0
5061,359.062,2.750,-88.125,0.002,0.000,-0.008,0.520,9.680,0.390,0.000,-0.120,0.070,-29.000,5.562,2.750,0.470,9.780,0.310,26,0,0,0,0
5069,359.062,2.750,-88.125,0.000,0.003,-0.010,0.560,9.700,0.410,0.040,-0.100,0.080,-26.750,6.375,2.750,0.470,9.780,0.310,26,0,0,0,0
5079,359.062,2.750,-88.125,-0.002,0.008,-0.005,0.600,9.680,0.330,0.090,-0.080,0.090,-26.750,6.375,2.750,0.470,9.780,0.310,26,0,0,0,0
5090,359.062,2.750,-88.125,-0.007,0.012,-0.008,0.640,9.630,0.350,0.120,-0.100,0.020,-26.750,6.375,2.750,0.480,9.780,0.310,26,0,0,0,0
5100,359.000,2.750,-88.125,-0.009,0.019,-0.008,0.610,9.630,0.390,0.160,-0.150,0.040,-26.750,6.375,2.750,0.480,9.780,0.310,26,0,0,0,0
5111,359.000,2.750,-88.125,-0.007,0.011,-0.002,0.560,9.640,0.430,0.130,-0.150,0.070,-26.750,6.375,2.750,0.480,9.780,0.310,26,0,0,0,0
5119,359.000,2.812,-88.125,0.000,0.001,-0.003,0.510,9.680,0.330,0.080,-0.140,0.120,-29.750,6.375,3.500,0.480,9.780,0.310,26,0,0,0,0
5130,359.000,2.812,-88.125,0.004,-0.007,-0.004,0.490,9.680,0.320,0.030,-0.100,0.010,-29.750,6.375,3.500,0.480,9.780,0.310,26,0,0,0,0
5140,359.000,2.812,-88.125,0.009,-0.020,-0.004,0.510,9.710,0.340,0.010,-0.100,0.010,-29.750,6.375,3.500,0.480,9.780,0.310,26,0,0,0,0
5150,359.062,2.812,-88.125,0.005,-0.020,-0.003,0.560,9.680,0.340,0.020,-0.070,0.030,-29.750,6.375,3.500,0.480,9.780,0.310,26,0,0,0,0
5161,359.062,2.812,-88.125,0.004,-0.014,-0.004,0.690,9.680,0.370,0.070,-0.100,0.030,-29.750,6.375,3.500,0.480,9.780,0.310,26,0,0,0,0
5169,359.062,2.812,-88.125,0.008,-0.013,-0.001,0.690,9.660,0.330,0.210,-0.100,0.060,-28.250,5.000,2.000,0.480,9.780,0.310,26,0,0,0,0
5185,359.062,2.812,-88.125,0.001,-0.012,-0.004,0.660,9.630,0.290,0.170,-0.150,-0.020,-28.250,5.000,2.000,0.480,9.780,0.310,26,0,0,0,0
5194,359.062,2.812,-88.125,0.004,-0.015,-0.005,0.510,9.640,0.320,0.030,-0.140,0.000,-28.250,5.000,2.000,0.480,9.780,0.310,26,0,0,0,0
5204,359.062,2.812,-88.125,0.009,-0.026,-0.008,0.360,9.660,0.340,-0.110,-0.120,0.020,-28.250,5.000,2.000,0.480,9.780,0.310,26,0,0,0,0
5213,359.062,2.812,-88.125,0.009,-0.026,-0.008,0.330,9.690,0.360,-0.110,-0.120,0.020,-28.250,5.562,1.500,0.480,9.780,0.310,26,0,0,0,0
5220,359.062,2.812,-88.125,0.009,-0.024,-0.008,0.330,9.690,0.360,-0.140,-0.090,0.050,-28.250,5.562,1.500,0.480,9.780,0.310,26,0,0,0,0
5228,359.125,2.812,-88.125,0.012,-0.022,-0.003,0.330,9.690,0.360,-0.140,-0.090,0.050,-28.250,5.562,1.500,0.480,9.780,0.310,26,0,0,0,0
5239,359.125,2.812,-88.125,0.012,-0.025,-0.004,0.470,9.660,0.320,-0.030,-0.110,-0.070,-28.250,5.562,1.500,0.480,9.780,0.310,26,0,0,0,0
5249,359.125,2.812,-88.125,0.012,-0.024,-0.003,0.500,9.690,0.340,0.000,-0.120,0.000,-28.250,5.562,1.500,0.480,9.780,0.300,26,0,0,0,0
5260,359.125,2.812,-88.125,0.012,-0.021,-0.003,0.500,9.690,0.340,0.020,-0.090,0.030,-28.250,5.562,1.500,0.480,9.780,0.300,26,0,0,0,0
5268,359.125,2.812,-88.188,0.011,-0.017,-0.005,0.560,9.650,0.300,0.070,-0.130,0.000,-27.250,5.562,3.562,0.480,9.780,0.300,26,0,0,0,0
5279,359.125,2.812,-88.188,0.009,-0.017,-0.003,0.500,9.670,0.310,0.020,-0.110,0.000,-27.250,5.562,3.562,0.480,9.780,0.300,26,0,0,0,0
5289,359.188,2.812,-88.188,0.013,-0.021,-0.003,0.490,9.690,0.280,0.000,-0.140,-0.020,-27.250,5.562,3.562,0.480,9.780,0.300,26,0,0,0,0
5300,359.188,2.812,-88.188,0.015,-0.022,-0.004,0.460,9.700,0.400,0.000,-0.090,-0.010,-27.250,5.562,3.562,0.480,9.780,0.300,26,0,0,0,0
5310,359.188,2.812,-88.188,0.013,-0.021,0.000,0.460,9.700,0.400,-0.020,-0.080,0.090,-27.250,5.562,3.562,0.480,9.780,0.300,26,0,0,0,0
5318,359.188,2.812,-88.188,0.013,-0.026,-0.001,0.490,9.710,0.370,0.000,-0.070,0.070,-28.375,5.250,2.375,0.480,9.780,0.300,26,0,0,0,0
5325,359.188,2.812,-88.188,0.015,-0.026,0.003,0.450,9.660,0.330,-0.030,-0.120,0.030,-28.375,5.250,2.375,0.480,9.780,0.300,26,0,0,0,0
5333,359.188,2.812,-88.188,0.015,-0.026,0.003,0.470,9.650,0.270,-0.010,-0.130,-0.020,-28.375,5.250,2.375,0.480,9.780,0.290,26,0,0,0,0
5342,359.250,2.812,-88.188,0.021,-0.037,0.005,0.560,9.700,0.300,0.070,-0.080,0.000,-28.375,5.250,2.375,0.480,9.790,0.290,26,0,0,0,0
5352,359.250,2.812,-88.250,0.016,-0.041,0.007,0.560,9.670,0.300,0.080,-0.110,0.000,-28.375,5.250,2.375,0.480,9.790,0.290,26,0,0,0,0
5362,359.250,2.812,-88.250,0.011,-0.048,0.009,0.540,9.650,0.350,0.080,-0.110,0.000,-28.375,5.250,2.375,0.480,9.790,0.290,26,0,0,0,0
5370,359.312,2.812,-88.250,0.011,-0.051,0.009,0.540,9.650,0.350,0.050,-0.130,0.060,-28.375,5.250,3.250,0.480,9.790,0.290,26,0,0,0,0
5377,359.312,2.812,-88.250,0.014,-0.051,0.008,0.560,9.680,0.370,0.080,-0.100,0.080,-28.375,5.250,3.250,0.480,9.790,0.290,26,0,0,0,0
5385,359.312,2.812,-88.250,0.013,-0.057,0.011,0.540,9.690,0.300,0.050,-0.090,0.010,-28.375,5.250,3.250,0.480,9.790,0.290,26,0,0,0,0
5395,359.375,2.812,-88.250,0.017,-0.067,0.008,0.530,9.680,0.300,0.040,-0.100,0.010,-28.375,5.250,3.250,0.480,9.790,0.290,26,0,0,0,0
5404,359.375,2.812,-88.250,0.013,-0.070,0.007,0.520,9.680,0.290,0.030,-0.100,0.000,-28.375,5.250,3.250,0.480,9.790,0.280,26,0,0,0,0
5412,359.438,2.812,-88.250,0.013,-0.070,0.007,0.470,9.670,0.330,0.030,-0.100,0.000,-29.062,6.000,3.562,0.490,9.790,0.280,26,0,0,0,0
5420,359.438,2.812,-88.312,0.013,-0.071,0.011,0.470,9.670,0.330,-0.010,-0.110,0.050,-29.062,6.000,3.562,0.490,9.790,0.280,26,0,0,0,0
5428,359.500,2.875,-88.312,0.020,-0.084,0.015,0.500,9.650,0.330,0.010,-0.130,0.040,-29.062,6.000,3.562,0.490,9.790,0.280,26,0,0,0,0
5437,359.500,2.875,-88.312,0.025,-0.089,0.022,0.470,9.660,0.210,-0.010,-0.120,-0.070,-29.062,6.000,3.562,0.490,9.790,0.280,26,0,0,0,0
5447,359.562,2.875,-88.312,0.013,-0.081,0.022,0.410,9.710,0.190,-0.080,-0.070,-0.080,-29.062,6.000,3.562,0.490,9.790,0.280,26,0,0,0,0
5458,359.562,2.875,-88.312,0.001,-0.062,0.023,0.430,9.720,0.260,-0.060,-0.060,-0.010,-29.062,6.000,3.562,0.490,9.780,0.280,26,0,0,0,0
5465,359.562,2.875,-88.312,0.000,-0.053,0.025,0.480,9.690,0.270,-0.010,-0.090,0.000,-28.688,6.000,2.750,0.500,9.780,0.280,26,0,0,0,0
5473,359.625,2.875,-88.312,0.000,-0.053,0.025,0.520,9.670,0.290,-0.010,-0.090,0.000,-28.688,6.000,2.750,0.500,9.780,0.270,26,0,0,0,0
5481,359.625,2.938,-88.312,-0.001,-0.047,0.022,0.500,9.630,0.220,0.010,-0.110,0.010,-28.688,6.000,2.750,0.500,9.780,0.270,26,0,0,0,0
5490,359.625,2.938,-88.312,-0.002,-0.047,0.026,0.510,9.670,0.250,0.000,-0.150,-0.050,-28.688,6.000,2.750,0.500,9.780,0.270,26,0,0,0,0
5500,359.625,2.938,-88.312,-0.004,-0.048,0.026,0.500,9.680,0.280,0.000,-0.110,-0.020,-28.688,6.000,2.750,0.510,9.780,0.270,26,0,0,0,0
5510,359.625,2.938,-88.312,-0.003,-0.046,0.026,0.500,9.680,0.280,0.000,-0.100,0.000,-28.688,6.000,2.750,0.510,9.780,0.270,26,0,0,0,0
5518,359.625,3.000,-88.312,-0.007,-0.045,0.027,0.420,9.680,0.250,-0.090,-0.100,-0.020,-28.688,6.750,3.500,0.510,9.780,0.270,26,0,0,0,0
5526,359.688,3.000,-88.312,-0.011,-0.034,0.024,0.490,9.730,0.240,-0.020,-0.050,-0.030,-28.688,6.750,3.500,0.510,9.780,0.270,26,0,0,0,0
5533,359.688,3.000,-88.312,-0.011,-0.034,0.024,0.480,9.710,0.190,-0.030,-0.070,-0.080,-28.688,6.750,3.500,0.510,9.780,0.280,26,0,0,0,0
5543,359.688,3.000,-88.312,-0.011,-0.029,0.025,0.480,9.680,0.200,-0.030,-0.100,-0.070,-28.688,6.750,3.500,0.520,9.780,0.280,26,0,0,0,0
5553,359.688,3.000,-88.312,-0.001,-0.028,0.023,0.530,9.620,0.220,0.010,-0.150,-0.050,-28.688,6.750,3.500,0.520,9.780,0.280,26,0,0,0,0
5562,359.688,3.062,-88.312,0.001,-0.026,0.023,0.610,9.640,0.250,0.010,-0.150,-0.050,-28.688,6.750,3.500,0.520,9.780,0.270,26,0,0,0,0
5570,359.688,3.062,-88.312,-0.003,-0.017,0.024,0.610,9.640,0.250,0.080,-0.140,-0.020,-29.500,5.250,4.000,0.520,9.780,0.270,26,0,0,0,0
5578,359.625,3.062,-88.312,-0.009,-0.008,0.021,0.640,9.670,0.270,0.110,-0.110,0.000,-29.500,5.250,4.000,0.520,9.780,0.270,26,0,0,0,0
5586,359.625,3.062,-88.312,-0.010,-0.002,0.017,0.570,9.670,0.180,0.040,-0.110,-0.090,-29.500,5.250,4.000,0.530,9.780,0.270,26,0,0,0,0
5595,359.625,3.062,-88.312,-0.012,0.008,0.019,0.430,9.650,0.300,-0.100,-0.120,0.020,-29.500,5.250,4.000,0.530,9.780,0.280,26,0,0,0,0
5605,359.625,3.062,-88.312,-0.013,0.016,0.016,0.430,9.700,0.360,-0.090,-0.080,0.080,-29.500,5.250,4.000,0.530,9.780,0.280,26,0,0,0,0
5613,359.625,3.062,-88.312,-0.013,0.016,0.016,0.520,9.720,0.300,0.000,-0.060,0.010,-29.875,6.250,3.500,0.530,9.780,0.280,26,0,0,0,0
5622,359.562,3.125,-88.312,-0.015,0.022,0.015,0.630,9.690,0.290,0.100,-0.090,0.000,-29.875,6.250,3.500,0.530,9.780,0.280,26,0,0,0,0
5632,359.562,3.125,-88.312,-0.012,0.022,0.016,0.690,9.670,0.340,0.150,-0.110,0.050,-29.875,6.250,3.500,0.530,9.780,0.280,26,0,0,0,0
5642,359.562,3.125,-88.312,-0.016,0.036,0.027,0.670,9.700,0.350,0.130,-0.080,0.070,-29.875,6.250,3.500,0.540,9.780,0.280,26,0,0,0,0
5652,359.500,3.125,-88.312,-0.010,0.041,0.028,0.630,9.690,0.350,0.130,-0.080,0.070,-29.875,6.250,3.500,0.540,9.780,0.280,26,0,0,0,0
5662,359.438,3.188,-88.312,-0.008,0.036,0.028,0.630,9.690,0.350,0.080,-0.090,0.060,-29.875,6.250,3.500,0.540,9.780,0.280,26,0,0,0,0
5669,359.438,3.188,-88.312,-0.007,0.033,0.023,0.650,9.680,0.360,0.100,-0.100,0.070,-29.500,5.875,4.250,0.540,9.780,0.280,26,0,0,0,0
5677,359.375,3.188,-88.250,-0.002,0.027,0.020,0.630,9.610,0.240,0.080,-0.170,-0.030,-29.500,5.875,4.250,0.550,9.780,0.280,26,0,0,0,0
5685,359.375,3.188,-88.250,0.004,0.035,0.020,0.630,9.610,0.190,0.080,-0.170,-0.090,-29.500,5.875,4.250,0.550,9.780,0.280,26,0,0,0,0
5694,359.375,3.188,-88.250,0.002,0.047,0.022,0.560,9.640,0.320,0.010,-0.130,0.030,-29.500,5.875,4.250,0.550,9.780,0.280,26,0,0,0,0
5704,359.312,3.188,-88.250,0.002,0.047,0.022,0.490,9.700,0.330,-0.060,-0.080,0.040,-29.500,5.875,4.250,0.550,9.780,0.280,26,0,0,0,0
5713,359.312,3.250,-88.250,0.002,0.046,0.021,0.430,9.730,0.320,-0.060,-0.080,0.040,-29.500,5.875,4.250,0.550,9.780,0.280,26,0,0,0,0
5721,359.250,3.250,-88.250,0.003,0.043,0.017,0.430,9.730,0.320,-0.120,-0.050,0.030,-29.188,5.875,2.188,0.550,9.780,0.280,26,0,0,0,0
5728,359.250,3.250,-88.250,0.000,0.045,0.013,0.490,9.710,0.270,-0.060,-0.070,-0.010,-29.188,5.875,2.188,0.550,9.780,0.280,26,0,0,0,0
5738,359.188,3.250,-88.250,0.003,0.048,0.014,0.560,9.650,0.110,0.000,-0.120,-0.170,-29.188,5.875,2.188,0.550,9.780,0.280,26,0,0,0,0
5748,359.125,3.250,-88.250,0.010,0.059,0.016,0.670,9.610,0.280,0.110,-0.170,0.000,-29.188,5.875,2.188,0.560,9.780,0.280,26,0,0,0,0
5758,359.062,3.250,-88.250,0.013,0.085,0.016,0.670,9.690,0.370,0.110,-0.090,0.080,-29.188,5.875,2.188,0.560,9.780,0.280,26,0,0,0,0
5766,359.062,3.250,-88.250,0.022,0.105,0.015,0.640,9.720,0.410,0.080,-0.060,0.120,-29.188,5.188,3.375,0.560,9.780,0.280,26,0,0,0,0
5774,359.000,3.250,-88.312,0.022,0.105,0.015,0.570,9.660,0.480,0.080,-0.060,0.120,-29.188,5.188,3.375,0.560,9.780,0.280,26,0,0,0,0
5781,358.938,3.250,-88.312,0.025,0.115,0.015,0.650,9.740,0.420,0.010,-0.110,0.200,-29.188,5.188,3.375,0.560,9.780,0.280,26,0,0,0,0
5790,358.875,3.312,-88.312,0.019,0.139,0.011,0.780,9.730,0.410,0.080,-0.030,0.130,-29.188,5.188,3.375,0.560,9.780,0.280,26,0,0,0,0
5800,358.812,3.312,-88.312,0.024,0.145,0.010,0.980,9.650,0.350,0.210,-0.050,0.120,-29.188,5.188,3.375,0.570,9.780,0.280,26,0,0,0,0
5811,358.688,3.312,-88.312,0.031,0.125,0.019,0.980,9.650,0.350,0.410,-0.120,0.070,-29.188,5.188,3.375,0.570,9.780,0.280,26,0,0,0,0
5819,358.625,3.312,-88.312,0.032,0.092,0.034,1.160,9.650,0.560,0.580,-0.130,0.270,-29.500,5.500,3.062,0.570,9.780,0.280,26,0,0,0,0
5826,358.562,3.375,-88.312,0.025,0.061,0.040,1.070,9.720,0.660,0.490,-0.060,0.380,-29.500,5.500,3.062,0.570,9.780,0.280,26,0,0,0,0
5836,358.562,3.375,-88.312,0.029,0.014,0.044,0.940,9.760,0.630,0.360,-0.020,0.350,-29.500,5.500,3.062,0.580,9.780,0.270,26,0,0,0,0
5846,358.500,3.375,-88.375,0.034,-0.024,0.036,0.790,9.770,0.590,0.200,0.000,0.310,-29.500,5.500,3.062,0.580,9.780,0.270,26,0,0,0,0
5857,358.500,3.438,-88.375,0.035,-0.045,0.033,0.540,9.660,0.560,-0.040,-0.120,0.290,-29.500,5.500,3.062,0.580,9.780,0.270,26,0,0,0,0
5864,358.500,3.438,-88.375,0.035,-0.045,0.033,0.640,9.670,0.550,0.050,-0.110,0.280,-29.875,7.375,3.375,0.590,9.780,0.260,26,0,0,0,0
5872,358.562,3.438,-88.438,0.044,-0.050,0.034,0.640,9.670,0.550,0.050,-0.110,0.280,-29.875,7.375,3.375,0.590,9.780,0.260,26,0,0,0,0
5880,358.562,3.438,-88.438,0.045,-0.052,0.038,0.780,9.700,0.460,0.180,-0.070,0.200,-29.875,7.375,3.375,0.600,9.780,0.250,26,0,0,0,0
5890,358.562,3.500,-88.500,0.053,-0.062,0.051,0.670,9.680,0.450,0.150,-0.100,0.150,-29.875,7.375,3.375,0.600,9.780,0.250,26,0,0,0,0
5900,358.562,3.500,-88.500,0.063,-0.068,0.055,0.540,9.690,0.430,0.060,-0.100,0.200,-29.875,7.375,3.375,0.610,9.780,0.240,26,0,0,0,0
5911,358.562,3.562,-88.562,0.076,-0.073,0.050,0.540,9.690,0.430,-0.060,-0.090,0.190,-29.875,7.375,3.375,0.610,9.780,0.240,26,0,0,0,0
5918,358.562,3.562,-88.562,0.081,-0.082,0.046,0.500,9.660,0.400,-0.100,-0.110,0.160,-29.875,6.562,3.500,0.610,9.780,0.230,26,0,0,0,0
5926,358.562,3.562,-88.562,0.083,-0.091,0.043,0.520,9.640,0.270,-0.090,-0.130,0.040,-29.875,6.562,3.500,0.620,9.780,0.230,26,0,0,0,0
5934,358.562,3.625,-88.625,0.083,-0.091,0.043,0.490,9.610,0.240,-0.120,-0.160,0.020,-29.875,6.562,3.500,0.620,9.780,0.220,26,0,0,0,0
5943,358.625,3.625,-88.688,0.085,-0.118,0.043,0.500,9.680,0.290,-0.120,-0.100,0.080,-29.875,6.562,3.500,0.620,9.780,0.210,26,0,0,0,0
5952,358.688,3.625,-88.688,0.079,-0.140,0.045,0.440,9.730,0.380,-0.180,-0.040,0.180,-29.875,6.562,3.500,0.630,9.780,0.200,26,0,0,0,0
5962,358.750,3.688,-88.750,0.070,-0.153,0.043,0.440,9.730,0.380,-0.180,-0.040,0.180,-29.875,6.562,3.500,0.630,9.780,0.200,26,0,0,0,0
5970,358.812,3.688,-88.812,0.065,-0.156,0.036,0.390,9.810,0.410,-0.230,0.020,0.210,-29.562,6.562,3.500,0.630,9.780,0.200,26,0,0,0,0
5978,358.875,3.688,-88.812,0.071,-0.170,0.028,0.450,9.720,0.310,-0.180,-0.050,0.120,-29.562,6.562,3.500,0.630,9.780,0.190,26,0,0,0,0
5985,358.875,3.688,-88.812,0.074,-0.158,0.034,0.450,9.720,0.220,-0.180,-0.060,0.030,-29.562,6.562,3.500,0.630,9.780,0.180,26,0,0,0,0
5995,359.000,3.688,-88.875,0.081,-0.163,0.037,0.340,9.730,0.180,-0.290,-0.040,0.000,-29.562,6.562,3.500,0.630,9.780,0.170,26,0,0,0,0
6004,359.062,3.688,-88.938,0.081,-0.163,0.037,0.240,9.720,0.210,-0.390,-0.060,0.040,-29.562,6.562,3.500,0.640,9.780,0.170,26,0,0,0,0
6013,359.125,3.750,-88.938,0.086,-0.157,0.048,0.150,9.650,0.210,-0.390,-0.060,0.040,-29.562,6.562,3.500,0.640,9.780,0.160,26,0,0,0,0
6021,359.188,3.750,-89.000,0.088,-0.157,0.052,0.150,9.650,0.210,-0.480,-0.120,0.040,-28.188,6.875,3.562,0.640,9.780,0.160,26,0,0,0,0
6029,359.250,3.750,-89.062,0.087,-0.151,0.056,0.040,9.620,0.110,-0.600,-0.150,-0.030,-28.188,6.875,3.562,0.640,9.780,0.150,26,0,0,0,0
6039,359.312,3.812,-89.125,0.094,-0.143,0.062,0.000,9.640,-0.170,-0.660,-0.130,-0.320,-28.188,6.875,3.562,0.650,9.780,0.140,26,0,0,0,0
6049,359.312,3.812,-89.188,0.098,-0.135,0.071,-0.030,9.630,-0.120,-0.690,-0.140,-0.260,-28.188,6.875,3.562,0.660,9.780,0.120,26,0,0,0,0
6060,359.312,3.875,-89.250,0.093,-0.135,0.079,-0.100,9.660,-0.140,-0.760,-0.110,-0.260,-28.188,6.875,3.562,0.660,9.780,0.120,26,0,0,0,0
6068,359.375,3.938,-89.312,0.088,-0.141,0.084,-0.310,9.660,-0.150,-0.990,-0.110,-0.270,-28.188,5.375,5.375,0.670,9.780,0.110,26,0,0,0,0
6076,359.375,3.938,-89.312,0.088,-0.141,0.084,-0.500,9.630,-0.180,-1.190,-0.140,-0.290,-28.188,5.375,5.375,0.680,9.780,0.100,26,0,0,0,0
6083,359.375,4.000,-89.375,0.080,-0.145,0.085,-0.670,9.570,-0.320,-1.360,-0.200,-0.420,-28.188,5.375,5.375,0.690,9.780,0.090,26,0,0,0,0
6094,359.438,4.000,-89.375,0.075,-0.148,0.089,-0.840,9.490,-0.330,-1.550,-0.290,-0.420,-28.188,5.375,5.375,0.700,9.780,0.080,26,0,0,0,0
6104,359.438,4.062,-89.438,0.079,-0.147,0.092,-1.220,9.500,-0.500,-1.930,-0.280,-0.580,-28.188,5.375,5.375,0.710,9.780,0.070,26,0,0,0,0
6113,359.500,4.125,-89.500,0.081,-0.139,0.092,-1.340,9.510,-0.550,-1.930,-0.280,-0.580,-28.188,5.375,5.375,0.720,9.770,0.070,26,0,0,0,0
6121,359.500,4.188,-89.562,0.088,-0.140,0.096,-1.340,9.510,-0.550,-2.060,-0.260,-0.620,-27.875,5.750,4.375,0.720,9.770,0.070,26,0,0,0,0
6129,359.500,4.250,-89.625,0.099,-0.154,0.098,-1.490,9.480,-0.640,-2.220,-0.290,-0.700,-27.875,5.750,4.375,0.730,9.770,0.050,26,0,0,0,0
6139,359.562,4.312,-89.688,0.100,-0.181,0.100,-1.630,9.500,-0.920,-2.370,-0.260,-0.970,-27.875,5.750,4.375,0.750,9.770,0.030,26,0,0,0,0
6150,359.625,4.375,-89.750,0.111,-0.225,0.103,-1.960,9.520,-1.170,-2.710,-0.250,-1.210,-27.875,5.750,4.375,0.750,9.770,0.020,26,0,0,0,0
6161,359.750,4.438,-89.812,0.111,-0.288,0.099,-2.180,9.590,-1.310,-2.940,-0.180,-1.330,-27.875,5.750,4.375,0.750,9.770,0.020,26,0,0,0,0
6168,359.875,4.438,-89.875,0.087,-0.346,0.089,-2.360,9.610,-1.500,-3.120,-0.160,-1.520,-29.250,4.750,5.688,0.760,9.770,0.010,26,0,0,0,0
6176,359.875,4.438,-89.875,0.087,-0.346,0.089,-2.730,9.590,-1.710,-3.510,-0.180,-1.720,-29.250,4.750,5.688,0.770,9.770,0.000,26,0,0,0,0
6184,0.000,4.500,-89.938,0.043,-0.404,0.094,-2.950,9.620,-1.850,-3.740,-0.150,-1.860,-29.250,4.750,5.688,0.780,9.770,0.000,26,0,0,0,0
6194,0.250,4.562,-89.938,-0.015,-0.456,0.104,-3.260,9.670,-1.740,-4.050,-0.090,-1.750,-29.250,4.750,5.688,0.790,9.770,0.000,26,0,0,0,0
6204,0.438,4.625,-89.938,-0.076,-0.506,0.094,-3.410,9.840,-1.710,-4.210,0.070,-1.720,-29.250,4.750,5.688,0.800,9.770,0.010,26,0,0,0,0
6214,0.688,4.688,-89.875,-0.130,-0.541,0.073,-3.200,9.970,-1.560,-4.210,0.070,-1.720,-29.250,4.750,5.688,0.800,9.770,0.020,26,0,0,0,0
6221,1.000,4.688,-89.812,-0.142,-0.561,0.036,-3.200,9.970,-1.560,-4.010,0.200,-1.590,-28.875,6.375,5.375,0.800,9.770,0.020,26,0,0,0,0
6229,1.312,4.688,-89.812,-0.095,-0.569,-0.017,-2.840,9.980,-1.580,-3.640,0.210,-1.610,-28.875,6.375,5.375,0.800,9.770,0.020,26,0,0,0,0
6240,1.688,4.625,-89.812,-0.010,-0.593,-0.077,-2.640,10.230,-1.760,-3.440,0.450,-1.790,-28.875,6.375,5.375,0.780,9.770,0.010,26,0,0,0,0
6250,2.125,4.562,-89.875,0.071,-0.613,-0.101,-1.880,11.160,-1.590,-2.970,1.040,-1.570,-28.875,6.375,5.375,0.780,9.770,0.000,26,0,0,0,0
6261,2.438,4.562,-90.000,0.182,-0.589,-0.080,-1.880,11.160,-1.590,-2.660,1.380,-1.590,-28.875,6.375,5.375,0.780,9.770,0.000,26,0,0,0,0
6269,2.812,4.500,-90.188,0.289,-0.571,-0.095,-1.500,11.500,-1.600,-2.270,1.720,-1.560,-30.188,6.000,6.188,0.770,9.770,-0.040,26,0,0,0,0
6276,2.812,4.500,-90.188,0.371,-0.529,-0.110,-1.020,11.670,-1.620,-1.790,1.900,-1.540,-30.188,6.000,6.188,0.760,9.770,-0.070,26,0,0,0,0
6284,3.188,4.438,-90.438,0.371,-0.529,-0.110,-0.510,11.760,-1.920,-1.260,1.990,-1.790,-30.188,6.000,6.188,0.750,9.770,-0.120,26,0,0,0,0
6294,3.500,4.375,-90.688,0.458,-0.511,-0.088,-1.100,11.840,-2.090,-1.850,2.060,-1.900,-30.188,6.000,6.188,0.740,9.770,-0.180,26,0,0,0,0
6305,3.750,4.312,-91.062,0.556,-0.543,-0.036,-1.820,12.200,-2.090,-2.570,2.430,-1.840,-30.188,6.000,6.188,0.740,9.770,-0.240,26,0,0,0,0
6314,4.062,4.312,-91.438,0.646,-0.569,0.014,-1.910,12.180,-2.010,-2.570,2.430,-1.840,-30.188,6.000,6.188,0.740,9.770,-0.320,26,0,0,0,0
6322,4.312,4.312,-91.875,0.724,-0.487,0.001,-1.910,12.180,-2.010,-2.650,2.400,-1.690,-31.062,5.000,6.750,0.740,9.770,-0.320,26,0,0,0,0
6329,4.500,4.312,-92.312,0.779,-0.364,-0.050,-0.680,11.120,-1.590,-1.430,1.350,-1.200,-31.062,5.000,6.750,0.740,9.770,-0.390,26,0,0,0,0
6340,4.688,4.250,-92.688,0.735,-0.274,-0.035,-0.220,10.980,-1.350,-0.960,1.220,-0.880,-31.062,5.000,6.750,0.730,9.760,-0.520,26,0,0,0,0
6350,4.750,4.250,-93.062,0.622,-0.141,-0.026,0.650,10.590,-0.590,-0.540,1.100,-0.600,-31.062,5.000,6.750,0.720,9.760,-0.580,26,0,0,0,0
6361,4.750,4.188,-93.375,0.548,-0.053,-0.071,0.650,10.590,-0.590,-0.070,0.820,-0.010,-31.062,5.000,6.750,0.720,9.760,-0.580,26,0,0,0,0
6369,4.812,4.125,-93.625,0.471,0.047,-0.176,1.160,10.330,-0.380,0.450,0.570,0.230,-30.688,4.188,7.250,0.700,9.760,-0.620,26,0,0,0,0
6376,4.812,4.125,-93.625,0.408,0.140,-0.284,1.870,10.110,-0.230,1.180,0.350,0.420,-30.688,4.188,7.250,0.680,9.760,-0.660,26,0,0,0,0
6385,4.875,3.938,-93.875,0.408,0.140,-0.284,2.450,9.950,-0.410,1.800,0.190,0.270,-30.688,4.188,7.250,0.640,9.760,-0.690,26,0,0,0,0
6395,5.000,3.750,-94.062,0.356,0.135,-0.404,2.590,9.710,-0.360,1.990,-0.050,0.350,-30.688,4.188,7.250,0.590,9.760,-0.720,26,0,0,0,0
6405,5.250,3.500,-94.188,0.273,-0.091,-0.574,2.940,9.520,-0.390,2.400,-0.230,0.350,-30.688,4.188,7.250,0.540,9.760,-0.750,26,0,0,0,0
6414,5.625,3.125,-94.375,0.273,-0.091,-0.574,2.950,9.640,-0.370,2.400,-0.230,0.350,-30.688,4.188,7.250,0.480,9.760,-0.770,26,0,0,0,0
6422,6.125,2.812,-94.500,0.217,-0.217,-0.645,2.950,9.640,-0.370,2.470,-0.120,0.390,-30.688,3.875,6.562,0.480,9.760,-0.770,26,0,0,0,0
6430,6.750,2.375,-94.562,0.134,-0.382,-0.686,3.250,9.870,-0.360,2.830,0.110,0.420,-30.688,3.875,6.562,0.410,9.760,-0.780,26,0,0,0,0
6440,7.438,2.000,-94.625,0.085,-0.531,-0.699,3.790,9.810,-0.610,3.450,0.040,0.180,-30.688,3.875,6.562,0.270,9.760,-0.800,26,0,0,0,0
6451,8.188,1.562,-94.688,0.052,-0.660,-0.671,3.610,9.680,-0.680,3.570,-0.010,0.220,-30.688,3.875,6.562,0.210,9.770,-0.800,26,0,0,0,0
6461,9.000,1.188,-94.688,0.024,-0.807,-0.612,3.610,9.680,-0.680,3.390,-0.080,0.110,-30.688,3.875,6.562,0.210,9.770,-0.800,26,0,0,0,0
6469,9.938,0.812,-94.750,0.034,-0.910,-0.620,3.220,8.820,-0.790,3.080,-0.940,0.020,-31.062,1.375,5.875,0.140,9.770,-0.810,26,0,0,0,0
6477,9.938,0.812,-94.750,0.034,-0.910,-0.620,2.650,8.350,-0.810,2.570,-1.410,0.000,-31.062,1.375,5.875,0.070,9.770,-0.820,26,0,0,0,0
6484,10.812,0.438,-94.812,0.095,-0.951,-0.622,1.840,8.410,-0.990,1.830,-1.350,-0.150,-31.062,1.375,5.875,0.000,9.770,-0.830,26,0,0,0,0
6495,11.812,0.000,-94.875,0.133,-1.018,-0.650,1.510,8.810,-0.930,1.580,-0.950,-0.080,-31.062,1.375,5.875,-0.060,9.760,-0.850,26,0,0,0,0
6505,12.812,-0.375,-94.938,0.152,-1.048,-0.695,1.610,9.130,-0.410,1.750,-0.630,0.440,-31.062,1.375,5.875,-0.140,9.760,-0.860,26,0,0,0,0
6514,13.812,-0.812,-95.062,0.171,-0.977,-0.749,1.150,8.970,-0.440,1.750,-0.630,0.440,-31.062,1.375,5.875,-0.220,9.760,-0.880,26,0,0,0,0
6522,14.812,-1.250,-95.125,0.201,-0.910,-0.754,1.150,8.970,-0.440,1.380,-0.780,0.430,-31.375,-0.875,7.375,-0.220,9.760,-0.880,26,0,0,0,0
6530,15.750,-1.750,-95.250,0.188,-0.856,-0.797,1.100,8.880,-0.380,1.410,-0.870,0.510,-31.375,-0.875,7.375,-0.300,9.760,-0.890,26,0,0,0,0
6540,16.750,-2.312,-95.312,0.136,-0.801,-0.885,0.690,9.000,-0.330,1.090,-0.740,0.570,-31.375,-0.875,7.375,-0.490,9.750,-0.910,26,0,0,0,0
6551,17.750,-2.875,-95.312,0.111,-0.757,-0.997,-0.040,8.970,-0.090,0.830,-0.640,0.710,-31.375,-0.875,7.375,-0.600,9.740,-0.920,26,0,0,0,0
6561,18.812,-3.500,-95.375,0.145,-0.705,-1.068,-0.040,8.970,-0.090,0.560,-0.760,0.830,-31.375,-0.875,7.375,-0.600,9.740,-0.920,26,0,0,0,0
6569,19.750,-4.125,-95.500,0.196,-0.604,-1.077,-0.360,8.770,0.000,0.340,-0.950,0.930,-32.062,-2.750,8.875,-0.710,9.730,-0.940,26,0,0,0,0
6577,19.750,-4.125,-95.500,0.229,-0.476,-1.084,-0.630,8.400,-0.020,0.180,-1.310,0.930,-32.062,-2.750,8.875,-0.810,9.720,-0.950,26,0,0,0,0
6584,20.688,-4.750,-95.625,0.229,-0.476,-1.084,-0.750,8.390,-0.190,0.160,-1.310,0.780,-32.062,-2.750,8.875,-0.920,9.710,-0.970,26,0,0,0,0
6594,21.500,-5.375,-95.688,0.219,-0.332,-1.105,-1.090,8.600,-0.410,-0.060,-1.090,0.570,-32.062,-2.750,8.875,-1.030,9.700,-0.990,26,0,0,0,0
6605,22.312,-6.000,-95.812,0.181,-0.235,-1.138,-0.960,8.720,-0.550,0.180,-0.960,0.450,-32.062,-2.750,8.875,-1.140,9.680,-1.000,26,0,0,0,0
6614,23.000,-6.688,-95.875,0.164,-0.124,-1.144,-0.960,8.140,-0.760,0.180,-0.960,0.450,-32.062,-2.750,8.875,-1.250,9.670,-1.020,26,0,0,0,0
6622,23.625,-7.312,-96.000,0.185,0.024,-1.148,-0.960,8.140,-0.760,0.280,-1.520,0.260,-32.688,-4.875,8.688,-1.250,9.670,-1.020,26,0,0,0,0
6630,24.188,-7.938,-96.125,0.201,0.183,-1.155,-0.840,8.120,-0.890,0.510,-1.530,0.140,-32.688,-4.875,8.688,-1.350,9.650,-1.040,26,0,0,0,0
6640,24.688,-8.562,-96.312,0.217,0.322,-1.167,-0.690,8.130,-1.010,0.760,-1.500,0.040,-32.688,-4.875,8.688,-1.560,9.610,-1.090,26,0,0,0,0
6651,25.062,-9.125,-96.500,0.238,0.441,-1.130,-0.740,8.140,-1.180,0.810,-1.460,-0.080,-32.688,-4.875,8.688,-1.650,9.590,-1.130,26,0,0,0,0
6661,25.375,-9.688,-96.688,0.268,0.539,-1.093,-0.750,8.170,-1.420,0.900,-1.420,-0.290,-32.688,-4.875,8.688,-1.650,9.590,-1.130,26,0,0,0,0
6669,25.625,-10.312,-96.938,0.315,0.659,-1.124,-0.670,8.110,-1.460,1.070,-1.460,-0.280,-30.062,-6.250,8.688,-1.750,9.570,-1.170,26,0,0,0,0
6677,25.625,-10.312,-96.938,0.315,0.659,-1.124,-0.610,8.070,-1.380,1.230,-1.470,-0.170,-30.062,-6.250,8.688,-1.850,9.550,-1.210,26,0,0,0,0
6685,25.812,-10.875,-97.188,0.309,0.767,-1.152,-0.470,8.240,-1.430,1.470,-1.280,-0.170,-30.062,-6.250,8.688,-1.950,9.520,-1.250,26,0,0,0,0
6695,26.000,-11.438,-97.500,0.278,0.814,-1.179,-0.600,8.350,-1.510,1.440,-1.140,-0.220,-30.062,-6.250,8.688,-2.050,9.500,-1.290,26,0,0,0,0
6705,26.188,-12.062,-97.688,0.254,0.777,-1.200,-0.890,8.410,-1.600,1.260,-1.060,-0.280,-30.062,-6.250,8.688,-2.150,9.470,-1.320,26,0,0,0,0
6714,26.500,-12.625,-97.938,0.221,0.659,-1.174,-1.700,8.500,-1.710,1.260,-1.060,-0.280,-30.062,-6.250,8.688,-2.240,9.440,-1.350,26,0,0,0,0
6722,26.812,-13.250,-98.125,0.203,0.545,-1.121,-1.700,8.500,-1.710,0.530,-0.940,-0.350,-29.062,-12.562,10.375,-2.240,9.440,-1.350,26,0,0,0,0
6730,27.125,-13.750,-98.312,0.207,0.472,-1.067,-1.960,8.520,-1.880,0.370,-0.890,-0.490,-29.062,-12.562,10.375,-2.340,9.420,-1.380,26,0,0,0,0
6740,27.438,-14.312,-98.562,0.226,0.407,-0.989,-2.670,8.720,-2.390,-0.240,-0.660,-0.970,-29.062,-12.562,10.375,-2.490,9.370,-1.440,26,0,0,0,0
6751,27.750,-14.688,-98.750,0.221,0.328,-0.838,-3.100,8.770,-2.530,-0.610,-0.590,-1.080,-29.062,-12.562,10.375,-2.550,9.350,-1.470,26,0,0,0,0
6762,28.000,-15.062,-98.938,0.245,0.327,-0.702,-3.230,8.400,-2.830,-0.680,-0.940,-1.360,-29.062,-12.562,10.375,-2.550,9.350,-1.470,26,0,0,0,0
6770,28.188,-15.375,-99.125,0.236,0.262,-0.573,-3.320,8.250,-3.010,-0.710,-1.080,-1.510,-28.562,-14.750,8.500,-2.600,9.330,-1.500,26,0,0,0,0
6777,28.188,-15.375,-99.125,0.237,0.177,-0.468,-3.590,8.100,-2.750,-0.940,-1.210,-1.220,-28.562,-14.750,8.500,-2.640,9.310,-1.520,26,0,0,0,0
6785,28.375,-15.625,-99.312,0.237,0.177,-0.468,-4.320,8.140,-2.660,-1.640,-1.150,-1.110,-28.562,-14.750,8.500,-2.670,9.300,-1.550,26,0,0,0,0
6796,28.625,-15.812,-99.438,0.280,-0.062,-0.396,-4.840,8.040,-2.790,-2.120,-1.240,-1.210,-28.562,-14.750,8.500,-2.710,9.280,-1.570,26,0,0,0,0
6806,28.938,-16.062,-99.625,0.285,-0.133,-0.348,-5.050,8.340,-2.210,-2.300,-0.930,-0.610,-28.562,-14.750,8.500,-2.740,9.270,-1.600,26,0,0,0,0
6815,29.250,-16.250,-99.750,0.285,-0.133,-0.348,-5.010,8.200,-2.330,-2.300,-0.930,-0.610,-28.562,-14.750,8.500,-2.770,9.260,-1.610,26,0,0,0,0
6823,29.562,-16.438,-99.875,0.245,-0.164,-0.275,-5.010,8.200,-2.330,-2.240,-1.060,-0.710,-28.250,-18.188,8.750,-2.770,9.260,-1.610,26,0,0,0,0
6830,29.875,-16.562,-100.000,0.251,-0.278,-0.251,-3.980,7.720,-2.340,-1.180,-1.530,-0.700,-28.250,-18.188,8.750,-2.800,9.250,-1.630,26,0,0,0,0
6841,30.250,-16.688,-100.062,0.253,-0.333,-0.188,-3.430,7.720,-2.150,-0.600,-1.520,-0.510,-28.250,-18.188,8.750,-2.840,9.230,-1.650,26,0,0,0,0
6851,30.625,-16.812,-100.125,0.195,-0.391,-0.111,-2.790,8.010,-1.710,-0.290,-1.350,-0.380,-28.250,-18.188,8.750,-2.850,9.230,-1.650,26,0,0,0,0
6862,30.938,-16.875,-100.125,0.167,-0.476,-0.038,-2.790,8.010,-1.710,0.060,-1.220,-0.050,-28.250,-18.188,8.750,-2.850,9.230,-1.650,26,0,0,0,0
6870,31.312,-16.875,-100.125,0.156,-0.551,0.062,-2.530,8.050,-1.530,0.320,-1.180,0.120,-27.375,-22.250,8.375,-2.850,9.230,-1.650,26,0,0,0,0
6877,31.312,-16.875,-100.125,0.141,-0.613,0.177,-2.660,8.000,-1.540,0.180,-1.230,0.100,-27.375,-22.250,8.375,-2.850,9.230,-1.650,26,0,0,0,0
6885,31.625,-16.875,-100.125,0.141,-0.613,0.177,-2.880,7.920,-1.470,-0.050,-1.320,0.170,-27.375,-22.250,8.375,-2.830,9.240,-1.640,26,0,0,0,0
6896,31.875,-16.750,-100.062,0.134,-0.616,0.293,-2.790,7.930,-1.360,0.010,-1.310,0.270,-27.375,-22.250,8.375,-2.800,9.250,-1.630,26,0,0,0,0
6906,32.062,-16.625,-100.000,0.072,-0.591,0.489,-2.610,8.030,-1.240,0.150,-1.230,0.370,-27.375,-22.250,8.375,-2.770,9.260,-1.620,26,0,0,0,0
6915,32.188,-16.375,-99.938,0.072,-0.591,0.489,-2.460,8.130,-1.140,0.150,-1.230,0.370,-27.375,-22.250,8.375,-2.720,9.270,-1.610,26,0,0,0,0
6923,32.188,-16.125,-99.812,0.009,-0.563,0.591,-2.460,8.130,-1.140,0.260,-1.140,0.460,-29.562,-20.188,9.062,-2.720,9.270,-1.610,26,0,0,0,0
6930,32.125,-15.812,-99.688,-0.056,-0.532,0.687,-2.400,8.180,-0.970,0.260,-1.110,0.620,-29.562,-20.188,9.062,-2.670,9.290,-1.590,26,0,0,0,0
6941,31.938,-15.438,-99.562,-0.133,-0.442,0.780,-2.310,8.590,-0.300,0.290,-0.730,1.270,-29.562,-20.188,9.062,-2.540,9.340,-1.540,26,0,0,0,0
6951,31.625,-15.000,-99.312,-0.231,-0.337,0.853,-0.670,10.230,-0.930,0.870,-0.130,1.310,-29.562,-20.188,9.062,-2.460,9.370,-1.500,26,0,0,0,0
6962,31.250,-14.500,-99.125,-0.326,-0.280,0.928,-0.670,10.230,-0.930,1.780,0.860,0.560,-29.562,-20.188,9.062,-2.460,9.370,-1.500,26,0,0,0,0
6970,30.812,-14.000,-98.812,-0.387,-0.302,0.985,0.450,11.610,-1.920,2.820,2.210,-0.460,-28.500,-22.688,10.750,-2.370,9.400,-1.460,26,0,0,0,0
6978,30.812,-14.000,-98.812,-0.383,-0.459,0.972,-3.240,13.820,-6.220,-0.950,4.400,-4.800,-28.500,-22.688,10.750,-2.290,9.420,-1.410,26,0,0,0,0
6986,30.500,-13.500,-98.500,-0.316,-0.626,0.822,-8.710,12.380,-5.950,-6.480,2.930,-4.580,-28.500,-22.688,10.750,-2.220,9.450,-1.370,26,0,0,0,0
6996,30.438,-13.062,-98.250,-0.361,-0.505,0.556,-14.280,11.770,-4.660,-12.100,2.310,-3.330,-28.500,-22.688,10.750,-2.180,9.460,-1.330,26,0,0,0,0
7006,30.375,-12.812,-98.000,-0.662,0.052,0.253,-13.120,12.900,-3.550,-10.960,3.420,-2.280,-28.500,-22.688,10.750,-2.150,9.480,-1.270,26,0,0,0,0
7015,30.125,-12.688,-97.625,-0.662,0.052,0.253,-8.120,13.200,-3.710,-10.960,3.420,-2.280,-28.500,-22.688,10.750,-2.140,9.490,-1.190,26,0,0,0,0
7023,29.562,-12.625,-97.188,-0.944,0.591,0.061,-8.120,13.200,-3.710,-5.980,3.700,-2.510,-29.500,-22.188,10.188,-2.140,9.490,-1.190,26,0,0,0,0
7031,28.688,-12.375,-96.750,-0.920,1.029,0.266,-4.960,12.780,-3.770,-2.850,3.270,-2.640,-29.500,-22.188,10.188,-2.100,9.500,-1.130,26,0,0,0,0
7041,27.500,-12.000,-96.562,-0.638,1.331,0.542,-3.820,11.840,-3.070,-1.770,2.310,-1.970,-29.500,-22.188,10.188,-1.960,9.540,-1.080,26,0,0,0,0
7052,26.125,-11.500,-96.500,-0.452,1.493,0.693,1.970,8.510,-0.250,2.210,-0.230,-0.110,-29.500,-22.188,10.188,-1.880,9.560,-1.060,26,0,0,0,0
7063,24.875,-11.062,-96.312,-0.520,1.300,0.733,1.970,8.510,-0.250,3.860,-1.050,0.800,-29.500,-22.188,10.188,-1.880,9.560,-1.060,26,0,0,0,0
7070,23.688,-10.500,-96.125,-0.577,0.948,0.904,2.780,7.790,0.390,4.570,-1.790,1.420,-31.500,-18.875,9.375,-1.780,9.580,-1.020,26,0,0,0,0
7078,23.688,-10.500,-96.125,-0.530,0.516,0.953,2.390,7.050,1.030,4.090,-2.550,2.020,-31.500,-18.875,9.375,-1.690,9.600,-0.980,26,0,0,0,0
7086,22.812,-9.938,-95.812,-0.568,0.218,0.836,0.480,7.230,1.540,2.090,-2.390,2.480,-31.500,-18.875,9.375,-1.610,9.620,-0.930,26,0,0,0,0
7096,22.188,-9.438,-95.562,-0.620,0.093,0.695,-0.430,7.330,1.730,1.110,-2.300,2.620,-31.500,-18.875,9.375,-1.550,9.640,-0.880,26,0,0,0,0
7106,21.688,-9.062,-95.188,-0.608,0.052,0.631,-1.130,7.810,1.440,0.350,-1.840,2.270,-31.500,-18.875,9.375,-1.490,9.650,-0.820,26,0,0,0,0
7115,21.250,-8.688,-94.875,-0.608,0.052,0.631,-1.450,10.030,1.910,0.350,-1.840,2.270,-31.500,-18.875,9.375,-1.430,9.670,-0.760,26,0,0,0,0
7123,20.812,-8.375,-94.500,-0.635,0.011,0.595,-1.450,10.030,1.910,-0.020,0.360,2.670,-32.500,-18.062,6.062,-1.430,9.670,-0.760,26,0,0,0,0
7131,20.438,-8.062,-94.125,-0.639,0.088,0.549,-0.690,11.080,0.400,0.680,1.390,1.110,-32.500,-18.062,6.062,-1.380,9.680,-0.700,26,0,0,0,0
7141,19.938,-7.750,-93.812,-0.607,0.207,0.605,1.080,11.130,-0.980,2.410,1.430,-0.320,-32.500,-18.062,6.062,-1.250,9.700,-0.600,26,0,0,0,0
7152,19.250,-7.312,-93.500,-0.592,0.372,0.699,3.740,9.200,-0.050,3.790,0.660,-0.940,-32.500,-18.062,6.062,-1.170,9.720,-0.540,26,0,0,0,0
7163,18.625,-6.875,-93.188,-0.654,0.253,0.815,3.740,9.200,-0.050,4.920,-0.510,0.490,-32.500,-18.062,6.062,-1.170,9.720,-0.540,26,0,0,0,0
7171,18.062,-6.375,-92.812,-0.687,0.032,0.893,4.300,9.280,1.010,5.400,-0.440,1.490,-33.250,-16.375,4.750,-1.090,9.730,-0.480,26,0,0,0,0
7178,18.062,-6.375,-92.812,-0.731,-0.164,0.877,3.810,9.430,2.170,4.820,-0.310,2.580,-33.250,-16.375,4.750,-1.010,9.740,-0.400,26,0,0,0,0
7191,17.375,-5.438,-91.875,-0.865,-0.490,0.791,1.260,10.160,2.520,2.200,0.400,2.850,-33.250,-16.375,4.750,-0.930,9.750,-0.320,26,0,0,0,0
7201,17.312,-5.125,-91.375,-0.876,-0.616,0.650,0.660,9.950,2.280,1.540,0.190,2.520,-33.250,-16.375,4.750,-0.820,9.770,-0.160,26,0,0,0,0
7212,17.250,-4.812,-90.938,-0.696,-0.437,0.571,0.320,9.460,2.080,1.140,-0.300,2.240,-33.250,-16.375,4.750,-0.820,9.770,-0.160,26,0,0,0,0
7220,17.062,-4.500,-90.562,-0.628,-0.251,0.552,0.180,9.330,1.490,0.960,-0.440,1.590,-34.562,-16.062,5.250,-0.770,9.770,-0.100,26,0,0,0,0
7228,17.062,-4.500,-90.562,-0.628,-0.251,0.552,0.980,9.540,1.380,1.700,-0.230,1.430,-34.562,-16.062,5.250,-0.710,9.780,-0.040,26,0,0,0,0
7236,16.750,-4.188,-90.188,-0.653,-0.105,0.587,1.820,9.730,1.600,2.480,-0.040,1.580,-34.562,-16.062,5.250,-0.650,9.780,0.020,26,0,0,0,0
7246,16.312,-3.812,-89.812,-0.686,0.035,0.688,2.550,9.840,1.840,3.120,0.050,1.750,-34.562,-16.062,5.250,-0.570,9.780,0.090,26,0,0,0,0
7256,15.750,-3.312,-89.438,-0.754,0.110,0.879,2.850,10.040,2.030,3.340,0.240,1.870,-34.562,-16.062,5.250,-0.490,9.790,0.160,26,0,0,0,0
7266,15.188,-2.875,-89.000,-0.754,0.110,0.879,2.250,10.310,1.790,3.340,0.240,1.870,-34.562,-16.062,5.250,-0.410,9.790,0.230,26,0,0,0,0
7273,14.688,-2.375,-88.625,-0.726,-0.023,0.864,2.250,10.310,1.790,2.660,0.520,1.550,-35.688,-14.688,4.250,-0.410,9.790,0.230,26,0,0,0,0
7281,14.312,-1.875,-88.250,-0.656,-0.106,0.860,2.140,10.270,1.370,2.460,0.470,1.080,-35.688,-14.688,4.250,-0.320,9.790,0.290,26,0,0,0,0
7291,13.875,-1.375,-87.875,-0.623,-0.156,0.880,1.970,10.180,1.010,2.210,0.380,0.660,-35.688,-14.688,4.250,-0.150,9.790,0.410,26,0,0,0,0
7302,13.438,-0.875,-87.562,-0.644,-0.200,0.920,1.660,10.020,0.880,1.750,0.350,0.460,-35.688,-14.688,4.250,-0.060,9.790,0.470,26,0,0,0,0
7313,13.000,-0.375,-87.188,-0.646,-0.160,0.941,1.660,10.020,0.880,1.720,0.220,0.400,-35.688,-14.688,4.250,-0.060,9.790,0.470,26,0,0,0,0
7321,12.500,0.125,-86.875,-0.596,-0.095,0.970,1.630,9.760,0.980,1.610,-0.020,0.440,-37.188,-13.375,3.375,0.020,9.790,0.530,26,0,0,0,0
7328,12.500,0.125,-86.875,-0.587,-0.064,1.005,1.650,9.730,0.910,1.530,-0.050,0.320,-37.188,-13.375,3.375,0.120,9.780,0.580,26,0,0,0,0
7338,12.000,0.688,-86.500,-0.576,-0.073,0.993,1.470,9.630,0.900,1.250,-0.140,0.250,-37.188,-13.375,3.375,0.210,9.780,0.640,26,0,0,0,0
7348,11.500,1.250,-86.188,-0.511,-0.057,0.995,1.100,9.740,0.890,0.790,-0.020,0.200,-37.188,-13.375,3.375,0.300,9.770,0.690,26,0,0,0,0
7358,11.000,1.750,-85.938,-0.406,0.014,1.050,0.610,9.620,0.880,0.200,-0.140,0.150,-37.188,-13.375,3.375,0.400,9.770,0.730,26,0,0,0,0
7367,10.375,2.375,-85.688,-0.406,0.014,1.050,0.710,9.090,0.860,0.200,-0.140,0.150,-37.562,-13.188,2.250,0.510,9.760,0.750,26,0,0,0,0
7374,9.688,3.000,-85.500,-0.289,0.124,1.160,0.710,9.090,0.860,0.200,-0.660,0.100,-37.562,-13.188,2.250,0.510,9.760,0.750,26,0,0,0,0
7382,9.000,3.625,-85.375,-0.276,0.148,1.134,0.690,8.720,0.980,0.070,-1.030,0.190,-37.562,-13.188,2.250,0.720,9.740,0.820,26,0,0,0,0
7392,8.438,4.188,-85.125,-0.442,0.017,1.066,0.190,9.460,1.000,-0.120,-0.820,0.180,-37.562,-13.188,2.250,0.820,9.730,0.890,26,0,0,0,0
7403,7.938,4.812,-84.750,-0.719,-0.120,1.080,-0.120,9.710,1.050,-0.630,-0.260,0.100,-37.562,-13.188,2.250,0.930,9.710,0.970,26,0,0,0,0
7414,7.438,5.438,-84.250,-0.836,-0.207,1.107,-0.120,9.710,1.050,-1.050,0.000,0.080,-37.562,-13.188,2.250,0.930,9.710,0.970,26,0,0,0,0
7422,7.000,6.062,-83.812,-0.832,-0.220,1.072,-0.220,9.510,1.010,-1.260,-0.170,-0.020,-39.500,-11.875,2.062,1.030,9.690,1.040,26,0,0,0,0
7429,7.000,6.062,-83.812,-0.830,-0.257,1.057,-0.260,9.390,1.100,-1.400,-0.280,-0.020,-39.500,-11.875,2.062,1.130,9.670,1.120,26,0,0,0,0
7439,6.562,6.625,-83.375,-0.882,-0.269,1.097,-0.270,9.640,1.120,-1.520,0.000,-0.070,-39.500,-11.875,2.062,1.240,9.650,1.200,26,0,0,0,0
7449,5.750,7.875,-82.312,-0.988,-0.277,1.105,-0.640,9.310,1.200,-1.990,-0.310,-0.080,-39.500,-11.875,2.062,1.350,9.620,1.290,26,0,0,0,0
7459,5.375,8.500,-81.750,-1.052,-0.281,1.088,-0.550,9.480,1.080,-2.000,-0.110,-0.300,-39.500,-11.875,2.062,1.450,9.590,1.380,26,0,0,0,0
7467,5.375,8.500,-81.750,-1.052,-0.281,1.088,-0.380,9.630,1.080,-1.940,0.060,-0.390,-40.062,-9.562,1.062,1.560,9.560,1.480,26,0,0,0,0
7475,4.938,9.125,-81.125,-1.136,-0.275,1.100,-0.380,9.630,1.080,-1.940,0.060,-0.390,-40.062,-9.562,1.062,1.670,9.530,1.580,26,0,0,0,0
7482,4.562,9.812,-80.500,-1.182,-0.336,1.179,-0.890,10.120,1.110,-2.560,0.590,-0.470,-40.062,-9.562,1.062,1.800,9.490,1.680,26,0,0,0,0
7493,4.062,10.562,-79.875,-1.112,-0.323,1.338,-0.230,9.800,0.970,-2.330,0.430,-0.610,-40.062,-9.562,1.062,1.940,9.440,1.760,26,0,0,0,0
7503,3.500,11.375,-79.375,-0.968,-0.301,1.436,-0.090,9.880,0.970,-2.170,0.350,-0.790,-40.062,-9.562,1.062,2.070,9.400,1.840,26,0,0,0,0
7514,2.875,12.188,-78.875,-0.903,-0.319,1.461,-0.090,9.880,0.970,-2.170,0.480,-0.870,-40.062,-9.562,1.062,2.210,9.350,1.910,26,0,0,0,0
7522,2.312,13.062,-78.438,-0.770,-0.278,1.468,-0.040,9.580,1.240,-2.260,0.220,-0.660,-41.562,-8.875,0.562,2.210,9.350,1.910,26,0,0,0,0
7530,1.688,13.812,-78.062,-0.660,-0.254,1.413,0.480,9.410,1.290,-1.860,0.100,-0.660,-41.562,-8.875,0.562,2.340,9.310,1.960,26,0,0,0,0
7539,1.125,14.562,-77.688,-0.692,-0.212,1.322,1.100,9.560,1.250,-1.370,0.290,-0.760,-41.562,-8.875,0.562,2.470,9.270,2.020,26,0,0,0,0
7550,0.625,15.250,-77.250,-0.741,-0.214,1.227,1.570,9.740,1.610,-1.010,0.510,-0.460,-41.562,-8.875,0.562,2.580,9.220,2.080,26,0,0,0,0
7560,0.188,15.938,-76.875,-0.712,-0.280,1.131,2.030,9.380,2.150,-0.650,0.190,0.020,-41.562,-8.875,0.562,2.690,9.180,2.130,26,0,0,0,0
7568,0.188,15.938,-76.875,-0.712,-0.280,1.131,2.000,9.150,2.240,-0.790,0.010,0.050,-42.000,-6.875,0.062,2.790,9.140,2.180,26,0,0,0,0
7575,359.812,16.562,-76.500,-0.662,-0.360,1.102,1.960,9.290,2.370,-0.790,0.010,0.050,-42.000,-6.875,0.062,2.900,9.090,2.230,26,0,0,0,0
7583,359.500,17.250,-76.188,-0.674,-0.459,1.137,1.720,9.830,2.000,-0.940,0.200,0.130,-42.000,-6.875,0.062,3.020,9.040,2.280,26,0,0,0,0
7593,359.125,17.938,-75.812,-0.713,-0.550,1.182,1.670,9.900,1.790,-1.290,0.790,-0.280,-42.000,-6.875,0.062,3.140,8.990,2.320,26,0,0,0,0
7604,358.812,18.688,-75.438,-0.717,-0.625,1.230,1.560,9.950,1.700,-1.470,0.910,-0.530,-42.000,-6.875,0.062,3.260,8.930,2.360,26,0,0,0,0
7909,356.750,30.125,-87.938,0.782,0.285,-2.129,6.900,13.130,3.030,2.150,4.560,2.780,-41.562,4.000,7.375,4.750,8.570,0.250,26,0,0,0,1
7918,357.562,28.938,-88.250,0.782,0.285,-2.129,8.390,14.590,0.710,2.150,4.560,2.780,-41.688,0.562,6.875,4.540,8.680,0.190,26,0,0,0,1
7925,358.562,27.562,-88.688,0.862,0.360,-2.464,8.390,14.590,0.710,3.840,5.910,0.510,-41.688,0.562,6.875,4.330,8.790,0.140,26,0,0,0,1
7933,359.500,26.188,-89.062,0.862,0.360,-2.464,7.600,14.130,0.800,3.260,5.340,0.660,-41.688,0.562,6.875,4.120,8.890,0.060,26,0,0,0,1
7944,0.500,24.812,-89.500,1.020,0.373,-2.515,9.380,13.880,1.040,2.390,4.720,0.980,-41.688,0.562,6.875,3.910,8.990,0.000,26,0,0,0,1
7954,1.562,23.500,-89.938,0.822,0.122,-2.390,9.400,13.600,0.400,5.470,4.880,1.040,-41.688,0.562,6.875,3.730,9.060,-0.050,26,0,0,0,1
7965,2.562,22.375,-90.312,0.672,-0.029,-2.034,9.400,13.600,0.400,5.660,4.530,0.460,-41.688,0.562,6.875,3.570,9.130,-0.110,26,0,0,0,1
7973,3.500,21.312,-90.688,0.629,-0.120,-1.845,9.120,12.460,0.170,5.540,3.330,0.290,-40.188,-1.688,6.062,3.570,9.130,-0.110,26,0,0,0,1
7981,4.562,20.312,-91.062,0.552,-0.153,-1.884,8.830,11.240,-0.010,5.430,2.050,0.150,-40.188,-1.688,6.062,3.400,9.190,-0.170,26,0,0,0,1
7990,4.562,20.312,-91.062,0.481,-0.199,-2.043,8.060,9.790,-0.330,4.840,0.530,-0.100,-40.188,-1.688,6.062,3.220,9.250,-0.220,26,0,0,0,1
8000,7.062,17.875,-91.625,0.420,-0.293,-2.292,6.940,9.640,-0.880,3.930,0.320,-0.610,-40.188,-1.688,6.062,3.010,9.320,-0.260,26,0,0,0,1
8010,8.625,16.438,-91.875,0.415,-0.439,-2.620,7.920,8.620,-0.910,5.140,-0.770,-0.590,-40.188,-1.688,6.062,2.770,9.390,-0.310,26,0,0,0,1
8018,8.625,16.438,-91.875,0.415,-0.439,-2.620,7.460,8.070,-1.150,5.140,-0.770,-0.590,-39.188,-5.000,5.375,2.520,9.460,-0.360,26,0,0,0,1
8026,10.438,14.875,-92.188,0.387,-0.621,-2.718,7.460,8.070,-1.150,4.940,-1.390,-0.780,-39.188,-5.000,5.375,2.270,9.530,-0.420,26,0,0,0,1
8034,12.188,13.375,-92.500,0.425,-0.520,-2.746,6.400,9.620,-0.650,4.120,0.090,-0.230,-39.188,-5.000,5.375,2.020,9.580,-0.470,26,0,0,0,1
8044,13.750,11.875,-92.812,0.520,-0.216,-2.698,5.750,7.870,-0.540,4.050,-0.470,-0.760,-39.188,-5.000,5.375,1.770,9.620,-0.520,26,0,0,0,1
8054,15.188,10.438,-93.125,0.586,-0.038,-2.634,5.030,7.690,-0.900,3.970,-1.750,-0.010,-39.188,-5.000,5.375,1.530,9.660,-0.570,26,0,0,0,1
8065,16.500,9.000,-93.375,0.535,0.097,-2.560,5.030,7.690,-0.900,3.490,-1.970,-0.320,-39.188,-5.000,5.375,1.530,9.660,-0.570,26,0,0,0,1
8073,17.688,7.625,-93.688,0.603,0.298,-2.530,5.600,7.210,-0.680,4.290,-2.480,-0.050,-37.750,-10.875,7.562,1.300,9.690,-0.620,26,0,0,0,1
8081,18.812,6.250,-94.000,0.627,0.329,-2.462,5.990,6.610,-0.410,4.920,-3.100,0.260,-37.750,-10.875,7.562,1.070,9.720,-0.680,26,0,0,0,1
8090,18.812,6.250,-94.000,0.597,0.291,-2.354,6.090,6.180,-0.110,5.230,-3.550,0.620,-37.750,-10.875,7.562,0.850,9.740,-0.730,26,0,0,0,1
8100,21.000,3.688,-94.562,0.551,0.236,-2.294,6.170,6.790,0.380,5.530,-2.950,1.170,-37.750,-10.875,7.562,0.630,9.750,-0.780,26,0,0,0,1
8110,22.125,2.438,-94.875,0.575,0.209,-2.366,6.060,6.650,0.570,5.640,-3.100,1.410,-37.750,-10.875,7.562,0.410,9.760,-0.840,26,0,0,0,1
8118,22.125,2.438,-94.875,0.575,0.209,-2.366,5.540,5.910,0.520,5.640,-3.100,1.410,-35.750,-15.875,8.562,0.200,9.760,-0.890,26,0,0,0,1
8126,23.250,1.125,-95.188,0.585,0.303,-2.316,5.540,5.910,0.520,5.340,-3.840,1.420,-35.750,-15.875,8.562,0.000,9.760,-0.940,26,0,0,0,1
8133,24.188,0.000,-95.500,0.511,0.464,-2.247,5.880,5.520,1.170,5.880,-4.240,2.120,-35.750,-15.875,8.562,-0.210,9.750,-0.980,26,0,0,0,1
8144,25.188,-1.250,-95.750,0.470,0.386,-2.244,6.260,5.510,1.480,6.240,-4.310,2.230,-35.750,-15.875,8.562,-0.420,9.740,-1.030,26,0,0,0,1
8154,26.250,-2.438,-96.000,0.466,0.283,-2.217,6.460,5.450,1.890,6.690,-4.230,2.510,-35.750,-15.875,8.562,-0.620,9.720,-1.070,26,0,0,0,1
8165,27.375,-3.625,-96.250,0.395,0.192,-2.128,6.460,5.450,1.890,7.080,-4.270,2.960,-35.750,-15.875,8.562,-0.620,9.720,-1.070,26,0,0,0,1
8173,28.438,-4.688,-96.438,0.278,0.041,-2.031,7.180,5.160,2.030,7.990,-4.540,3.120,-34.688,-21.688,7.562,-0.810,9.710,-1.090,26,0,0,0,1
8181,29.688,-5.812,-96.562,0.191,-0.155,-1.977,7.480,4.920,1.910,8.480,-4.760,3.020,-34.688,-21.688,7.562,-0.990,9.690,-1.110,26,0,0,0,1
8189,29.688,-5.812,-96.562,0.099,-0.368,-2.016,7.660,4.500,1.880,8.850,-5.160,3.000,-34.688,-21.688,7.562,-1.190,9.660,-1.120,26,0,0,0,1
8199,31.000,-6.938,-96.562,-0.017,-0.633,-2.055,7.290,4.260,1.770,8.680,-5.380,2.880,-34.688,-21.688,7.562,-1.390,9.640,-1.110,26,0,0,0,1
8210,32.562,-8.125,-96.562,-0.142,-0.815,-2.109,6.130,3.650,1.810,7.720,-5.960,2.900,-34.688,-21.688,7.562,-1.590,9.610,-1.080,26,0,0,0,1
8218,34.188,-9.312,-96.438,-0.142,-0.815,-2.109,5.830,3.530,1.790,7.720,-5.960,2.900,-34.188,-23.188,6.688,-1.800,9.580,-1.040,26,0,0,0,1
8226,35.938,-10.562,-96.188,-0.317,-0.959,-2.111,5.830,3.530,1.790,7.630,-6.040,2.830,-34.188,-23.188,6.688,-1.800,9.580,-1.040,26,0,0,0,1
8234,37.562,-11.688,-95.812,-0.489,-1.013,-1.965,4.930,4.060,1.160,6.920,-5.480,2.140,-34.188,-23.188,6.688,-2.160,9.520,-0.890,26,0,0,0,1
8244,39.062,-12.750,-95.375,-0.638,-0.896,-1.821,0.710,5.630,1.810,4.250,-4.750,2.410,-34.188,-23.188,6.688,-2.330,9.490,-0.800,26,0,0,0,1
8255,40.312,-13.688,-94.812,-0.846,-0.788,-1.671,-0.900,7.120,1.830,3.040,-3.850,2.610,-34.188,-23.188,6.688,-2.460,9.460,-0.700,26,0,0,0,1
8266,41.375,-14.562,-94.188,-0.934,-0.756,-1.420,-0.900,7.120,1.830,1.560,-2.340,2.540,-34.188,-23.188,6.688,-2.460,9.460,-0.700,26,0,0,0,1
8273,42.250,-15.188,-93.688,-0.813,-0.555,-1.190,-2.930,8.080,0.840,-0.350,-1.350,1.450,-27.750,-28.500,9.500,-2.570,9.440,-0.610,26,0,0,0,1
8281,42.938,-15.938,-93.438,-0.487,-0.055,-1.338,-4.860,9.850,-3.830,-2.160,0.440,-3.260,-27.750,-28.500,9.500,-2.700,9.410,-0.560,26,0,0,0,1
8290,42.938,-15.938,-93.438,0.013,0.233,-1.540,-6.870,10.860,-6.650,-4.030,1.490,-6.080,-27.750,-28.500,9.500,-2.830,9.360,-0.570,26,0,0,0,1
8300,43.688,-16.812,-93.500,0.401,0.350,-1.532,-9.050,11.330,-6.910,-6.070,2.010,-6.290,-27.750,-28.500,9.500,-2.970,9.320,-0.620,26,0,0,0,1
8310,44.375,-17.625,-93.750,0.340,0.825,-1.253,-12.820,11.020,-3.640,-9.730,1.740,-2.970,-27.750,-28.500,9.500,-3.080,9.280,-0.670,26,0,0,0,1
8318,44.688,-18.312,-94.125,0.340,0.825,-1.253,-11.990,9.890,-4.470,-9.730,1.740,-2.970,-27.562,-31.188,10.000,-3.160,9.250,-0.710,26,0,0,0,1
8326,44.688,-18.812,-94.375,0.101,1.016,-1.025,-11.990,9.890,-4.470,-8.820,0.640,-3.750,-27.562,-31.188,10.000,-3.220,9.220,-0.750,26,0,0,0,1
8334,45.000,-19.188,-94.625,0.369,0.245,-0.688,-12.660,10.180,-5.430,-9.430,0.960,-4.670,-27.562,-31.188,10.000,-3.250,9.210,-0.810,26,0,0,0,1
8344,45.750,-19.375,-95.062,0.927,-0.656,-0.279,-21.220,13.870,-2.520,-14.790,2.150,-4.780,-27.562,-31.188,10.000,-3.240,9.200,-0.900,26,0,0,0,1
8355,46.188,-19.312,-95.562,1.143,-0.517,0.165,-16.770,13.350,0.000,-17.970,4.660,-1.620,-27.562,-31.188,10.000,-3.200,9.210,-0.970,26,0,0,0,1
8366,45.938,-19.062,-96.000,0.666,0.214,0.451,-16.770,13.350,0.000,-13.560,4.140,0.970,-27.562,-31.188,10.000,-3.160,9.220,-1.000,26,0,0,0,1
8374,45.312,-18.812,-96.188,0.153,0.744,0.331,-9.690,11.690,0.140,-6.520,2.470,1.150,-25.375,-31.750,9.500,-3.160,9.220,-1.000,26,0,0,0,1
8381,44.750,-18.688,-96.375,0.000,0.939,0.109,-4.950,10.070,-0.010,-1.800,0.840,1.020,-25.375,-31.750,9.500,-3.150,9.220,-1.030,26,0,0,0,1
8390,44.750,-18.688,-96.375,-0.132,1.323,-0.021,-0.470,8.110,-0.510,2.660,-1.110,0.540,-25.375,-31.750,9.500,-3.130,9.220,-1.060,26,0,0,0,1
8400,43.938,-18.625,-96.562,-0.189,2.003,0.158,0.960,7.930,0.140,4.060,-1.290,1.250,-25.375,-31.750,9.500,-3.100,9.230,-1.100,26,0,0,0,1
8410,42.625,-18.438,-96.812,-0.110,2.442,0.266,2.820,6.750,1.200,5.870,-2.480,2.370,-25.375,-31.750,9.500,-3.050,9.240,-1.170,26,0,0,0,1
8418,41.000,-18.125,-97.188,-0.110,2.442,0.266,7.080,4.250,4.240,5.870,-2.480,2.370,-25.875,-32.062,9.875,-2.990,9.250,-1.230,26,0,0,0,1
8426,39.375,-17.750,-97.625,-0.041,2.485,0.314,7.080,4.250,4.240,10.080,-4.990,5.480,-25.875,-32.062,9.875,-2.930,9.260,-1.280,26,0,0,0,1
8434,37.750,-17.375,-97.875,-0.158,2.234,0.424,8.930,3.530,6.780,11.860,-5.730,8.070,-25.875,-32.062,9.875,-2.840,9.290,-1.290,26,0,0,0,1
8444,36.500,-16.875,-97.875,-0.353,1.260,0.726,16.360,6.450,-2.240,15.360,-5.080,5.030,-25.875,-32.062,9.875,-2.730,9.320,-1.290,26,0,0,0,1
8455,35.812,-16.188,-97.875,0.048,0.014,1.262,4.080,13.530,-13.460,19.090,-2.870,-0.940,-25.875,-32.062,9.875,-2.600,9.350,-1.360,26,0,0,0,1
8466,35.188,-15.375,-98.250,0.724,-0.075,1.466,4.080,13.530,-13.460,6.680,4.180,-12.090,-25.875,-32.062,9.875,-2.600,9.350,-1.360,26,0,0,0,1
8474,34.688,-14.812,-98.625,0.694,0.053,1.038,-9.900,17.110,-12.670,-7.390,7.740,-11.250,-27.750,-33.000,7.250,-2.500,9.370,-1.420,26,0,0,0,1
8481,34.375,-14.625,-98.812,0.231,0.331,0.289,-25.910,22.140,-9.090,-23.430,12.760,-7.640,-27.750,-33.000,7.250,-2.470,9.370,-1.450,26,0,0,0,1
8490,34.375,-14.625,-98.812,-0.312,1.359,-0.289,-31.490,25.880,-6.290,-29.000,16.500,-4.830,-27.750,-33.000,7.250,-2.480,9.370,-1.450,26,0,0,0,1
8500,33.625,-14.625,-98.812,-1.004,2.316,0.128,-5.920,18.480,-5.910,-3.480,9.090,-4.490,-27.750,-33.000,7.250,-2.440,9.390,-1.420,26,0,0,0,1
8511,31.938,-14.375,-98.562,-1.491,1.852,0.891,1.090,9.790,-3.580,3.420,0.360,-2.250,-27.750,-33.000,7.250,-2.330,9.430,-1.330,26,0,0,0,1
8519,30.062,-13.750,-98.000,-1.491,1.852,0.891,5.730,4.200,-0.920,3.420,0.360,-2.250,-28.875,-31.062,6.875,-2.220,9.470,-1.210,26,0,0,0,1
8526,28.625,-13.062,-97.312,-1.469,1.018,1.061,5.730,4.200,-0.920,7.950,-5.260,0.280,-28.875,-31.062,6.875,-2.100,9.510,-1.100,26,0,0,0,1
8534,27.562,-12.375,-96.562,-1.362,0.349,1.240,12.500,1.900,4.130,14.610,-7.610,5.230,-28.875,-31.062,6.875,-2.000,9.540,-0.990,26,0,0,0,1
8544,26.688,-11.750,-95.938,-1.153,0.137,1.133,8.680,3.650,6.590,12.670,-6.960,6.560,-28.875,-31.062,6.875,-1.910,9.570,-0.910,26,0,0,0,1
8555,25.938,-11.250,-95.438,-0.917,0.213,0.863,4.350,5.000,7.770,10.600,-5.910,7.500,-28.875,-31.062,6.875,-1.870,9.580,-0.850,26,0,0,0,1
8566,25.812,-11.000,-95.062,-0.595,-0.233,0.456,4.350,5.000,7.770,6.230,-4.580,8.630,-28.875,-31.062,6.875,-1.870,9.580,-0.850,26,0,0,0,1
8574,25.750,-10.875,-94.812,-0.421,-0.266,0.266,-1.230,11.350,3.480,0.620,1.760,4.290,-30.750,-29.062,3.500,-1.850,9.590,-0.810,26,0,0,0,1
8581,25.312,-10.562,-94.688,-0.259,0.107,0.574,-0.650,13.290,0.740,1.140,3.680,1.530,-30.750,-29.062,3.500,-1.800,9.600,-0.790,26,0,0,0,1
8590,25.312,-10.562,-94.688,-0.331,0.369,1.034,0.840,13.190,0.350,2.540,3.560,1.120,-30.750,-29.062,3.500,-1.700,9.620,-0.760,26,0,0,0,1
8600,24.500,-10.000,-94.500,-0.795,0.589,1.412,6.630,11.010,1.650,8.200,1.360,2.350,-30.750,-29.062,3.500,-1.560,9.650,-0.700,26,0,0,0,1
8611,23.312,-9.188,-94.125,-1.064,0.461,1.593,7.910,9.930,1.450,9.330,0.250,2.060,-30.750,-29.062,3.500,-1.410,9.680,-0.600,26,0,0,0,1
8619,22.062,-8.250,-93.562,-1.064,0.461,1.593,6.880,8.720,1.700,9.330,0.250,2.060,-31.062,-28.688,2.188,-1.270,9.700,-0.520,26,0,0,0,1
8627,21.000,-7.438,-93.062,-0.947,0.172,1.533,6.880,8.720,1.700,8.150,-0.980,2.230,-31.062,-28.688,2.188,-1.160,9.720,-0.430,26,0,0,0,1
8634,20.375,-6.812,-92.562,-0.858,-0.064,1.124,6.210,9.150,1.720,7.380,-0.570,2.160,-31.062,-28.688,2.188,-1.080,9.740,-0.350,26,0,0,0,1
8645,20.000,-6.312,-92.062,-0.837,-0.279,0.899,3.010,11.680,1.350,6.000,0.890,2.360,-31.062,-28.688,2.188,-0.990,9.750,-0.250,26,0,0,0,1
8655,19.688,-5.812,-91.500,-1.008,-0.575,0.954,1.990,11.900,1.010,4.000,1.930,1.610,-31.062,-28.688,2.188,-0.900,9.760,-0.150,26,0,0,0,1
8666,19.500,-5.250,-90.875,-1.024,-0.607,0.953,1.990,11.900,1.010,2.900,2.140,1.160,-31.062,-28.688,2.188,-0.810,9.770,-0.050,26,0,0,0,1
8674,19.125,-4.750,-90.312,-0.988,-0.461,0.969,1.130,11.030,0.940,1.940,1.250,1.000,-34.250,-27.875,1.250,-0.810,9.770,-0.050,26,0,0,0,1
8682,18.688,-4.188,-89.750,-1.000,-0.247,1.022,1.510,9.780,1.020,2.220,0.000,0.990,-34.250,-27.875,1.250,-0.710,9.780,0.030,26,0,0,0,1
8691,18.062,-3.562,-89.188,-1.005,-0.105,1.102,2.070,9.570,1.070,2.680,-0.210,0.940,-34.250,-27.875,1.250,-0.610,9.780,0.130,26,0,0,0,1
8701,17.438,-2.938,-88.688,-0.913,-0.053,1.146,2.460,9.500,1.140,2.960,-0.290,0.920,-34.250,-27.875,1.250,-0.500,9.790,0.220,26,0,0,0,1
8711,16.812,-2.250,-88.250,-0.760,-0.071,1.153,2.690,9.760,1.480,3.080,-0.030,1.180,-34.250,-27.875,1.250,-0.390,9.790,0.290,26,0,0,0,1
8719,16.812,-2.250,-88.250,-0.760,-0.071,1.153,2.610,9.850,1.350,2.900,0.060,1.000,-34.000,-25.000,1.500,-0.280,9.790,0.350,26,0,0,0,1
8727,16.312,-1.625,-87.938,-0.589,-0.203,1.153,2.610,9.850,1.350,2.900,0.060,1.000,-34.000,-25.000,1.500,-0.170,9.790,0.390,26,0,0,0,1
8735,15.875,-1.000,-87.625,-0.487,-0.394,1.156,2.420,9.860,1.070,2.590,0.060,0.670,-34.000,-25.000,1.500,-0.050,9.790,0.440,26,0,0,0,1
8745,15.500,-0.312,-87.375,-0.460,-0.567,1.194,0.090,10.050,0.010,2.020,0.100,0.190,-34.000,-25.000,1.500,0.060,9.790,0.480,26,0,0,0,1
8756,15.125,0.312,-87.125,-0.444,-0.641,1.242,-0.470,9.760,-0.160,0.030,0.260,-0.460,-34.000,-25.000,1.500,0.180,9.790,0.520,26,0,0,0,1
8767,14.750,1.062,-86.875,-0.465,-0.625,1.251,-0.470,9.760,-0.160,-0.660,-0.020,-0.690,-34.000,-25.000,1.500,0.300,9.780,0.570,26,0,0,0,1
8774,14.438,1.750,-86.562,-0.536,-0.603,1.238,-0.460,9.310,-0.130,-0.770,-0.460,-0.710,-36.500,-23.062,0.062,0.300,9.780,0.570,26,0,0,0,1
8782,14.000,2.500,-86.250,-0.615,-0.579,1.271,-0.280,9.170,-0.060,-0.710,-0.590,-0.700,-36.500,-23.062,0.062,0.420,9.770,0.630,26,0,0,0,1
8791,14.000,2.500,-86.250,-0.623,-0.475,1.309,-0.450,9.230,0.460,-1.010,-0.530,-0.220,-36.500,-23.062,0.062,0.550,9.760,0.690,26,0,0,0,1
8801,13.562,3.250,-85.938,-0.653,-0.439,1.290,-0.290,9.070,0.950,-0.970,-0.670,0.200,-36.500,-23.062,0.062,0.680,9.750,0.740,26,0,0,0,1
8811,12.688,4.688,-85.188,-0.780,-0.475,1.261,-0.560,8.900,1.280,-1.360,-0.830,0.460,-36.500,-23.062,0.062,0.800,9.730,0.810,26,0,0,0,1
8819,12.688,4.688,-85.188,-0.780,-0.475,1.261,-0.210,9.050,1.860,-1.360,-0.830,0.460,-38.688,-19.375,1.688,0.920,9.720,0.900,26,0,0,0,1
8827,12.250,5.375,-84.625,-0.969,-0.490,1.205,-0.210,9.050,1.860,-1.130,-0.660,0.950,-38.688,-19.375,1.688,1.030,9.690,1.000,26,0,0,0,1
8835,12.000,6.062,-84.062,-1.120,-0.595,1.163,-0.120,9.480,1.470,-1.160,-0.210,0.460,-38.688,-19.375,1.688,1.150,9.670,1.100,26,0,0,0,1
8845,11.688,6.750,-83.438,-1.144,-0.596,1.229,-0.320,10.070,0.940,-1.450,0.260,-0.090,-38.688,-19.375,1.688,1.280,9.640,1.200,26,0,0,0,1
8856,11.250,7.500,-82.812,-1.139,-0.493,1.326,-0.460,9.940,1.000,-1.610,0.420,-0.250,-38.688,-19.375,1.688,1.420,9.610,1.300,26,0,0,0,1
8867,10.750,8.312,-82.250,-1.133,-0.419,1.408,-0.460,9.940,1.000,-1.880,0.330,-0.300,-38.688,-19.375,1.688,1.560,9.570,1.410,26,0,0,0,1
8875,10.188,9.125,-81.562,-1.167,-0.380,1.434,-0.130,9.800,1.090,-1.700,0.220,-0.310,-38.250,-18.750,3.062,1.560,9.570,1.410,26,0,0,0,1
8882,9.688,10.000,-80.875,-1.276,-0.500,1.498,0.310,9.890,0.950,-1.390,0.350,-0.560,-38.250,-18.750,3.062,1.700,9.530,1.520,26,0,0,0,1
8891,9.188,11.000,-80.250,-1.257,-0.673,1.707,-0.710,9.570,0.860,-2.580,0.080,-0.760,-38.250,-18.750,3.062,1.870,9.480,1.620,26,0,0,0,1
8902,8.625,12.125,-79.625,-1.194,-0.798,1.880,-1.560,9.250,0.920,-3.620,-0.180,-0.790,-38.250,-18.750,3.062,2.060,9.430,1.710,26,0,0,0,1
8912,8.000,13.250,-79.062,-1.125,-0.783,1.933,-2.350,9.480,0.950,-4.600,0.100,-0.840,-38.250,-18.750,3.062,2.240,9.370,1.800,26,0,0,0,1
8919,8.000,13.250,-79.062,-1.125,-0.783,1.933,-2.640,9.610,0.990,-5.080,0.300,-0.880,-40.500,-15.688,1.500,2.430,9.310,1.870,26,0,0,0,1
8927,7.375,14.375,-78.562,-0.982,-0.678,1.924,-2.640,9.610,0.990,-5.080,0.300,-0.880,-40.500,-15.688,1.500,2.610,9.240,1.950,26,0,0,0,1
8935,6.688,15.438,-78.062,-0.942,-0.532,1.845,-2.870,9.810,1.130,-5.480,0.560,-0.820,-40.500,-15.688,1.500,2.760,9.180,2.030,26,0,0,0,1
8945,6.062,16.375,-77.500,-1.010,-0.370,1.656,-1.820,10.710,1.170,-5.140,1.190,-0.860,-40.500,-15.688,1.500,2.900,9.120,2.100,26,0,0,0,1
8956,5.562,17.188,-77.000,-0.899,-0.352,1.443,-1.280,10.680,1.280,-4.720,1.580,-0.920,-40.500,-15.688,1.500,3.020,9.070,2.150,26,0,0,0,1
8967,5.000,17.938,-76.625,-0.685,-0.281,1.317,-1.280,10.680,1.280,-4.300,1.610,-0.860,-40.500,-15.688,1.500,3.130,9.020,2.190,26,0,0,0,1
8975,4.500,18.625,-76.312,-0.575,-0.218,1.232,0.550,10.380,1.360,-2.580,1.350,-0.820,-42.375,-12.000,1.500,3.130,9.020,2.190,26,0,0,0,1
8982,4.062,19.312,-75.938,-0.573,-0.257,1.198,1.020,10.350,1.240,-2.210,1.370,-0.990,-42.375,-12.000,1.500,3.240,8.970,2.230,26,0,0,0,1
8991,4.062,19.312,-75.938,-0.487,-0.332,1.205,1.650,10.270,1.060,-1.700,1.340,-1.200,-42.375,-12.000,1.500,3.350,8.920,2.270,26,0,0,0,1
9001,3.562,20.000,-75.688,-0.396,-0.467,1.281,1.080,9.920,1.130,-2.390,1.040,-1.150,-42.375,-12.000,1.500,3.470,8.870,2.280,26,0,0,0,1
9012,2.688,21.562,-75.375,-0.317,-0.590,1.314,0.900,10.020,1.030,-2.700,1.200,-1.260,-42.375,-12.000,1.500,3.600,8.820,2.290,26,0,0,0,1
9020,2.688,21.562,-75.375,-0.317,-0.590,1.314,0.760,10.250,1.020,-2.700,1.200,-1.260,-42.375,-9.688,3.375,3.730,8.770,2.290,26,0,0,0,1
9027,2.312,22.312,-75.312,-0.290,-0.712,1.308,0.760,10.250,1.020,-2.970,1.470,-1.260,-42.375,-9.688,3.375,3.860,8.710,2.290,26,0,0,0,1
9035,1.938,23.125,-75.250,-0.281,-0.777,1.316,0.650,10.720,0.740,-3.200,2.000,-1.540,-42.375,-9.688,3.375,3.990,8.660,2.270,26,0,0,0,1
9045,1.562,24.000,-75.250,-0.169,-0.829,1.324,0.760,11.690,0.950,-2.990,2.900,-2.020,-42.375,-9.688,3.375,4.120,8.610,2.240,26,0,0,0,1
9056,1.188,24.812,-75.375,-0.041,-0.940,1.336,0.250,11.980,1.390,-3.360,3.080,-1.280,-42.375,-9.688,3.375,4.250,8.550,2.190,26,0,0,0,1
9067,0.875,25.688,-75.562,0.023,-1.044,1.326,0.250,11.980,1.390,-3.990,3.420,-0.790,-42.375,-9.688,3.375,4.250,8.550,2.190,26,0,0,0,1
9075,0.562,26.562,-75.875,0.123,-1.177,1.280,-0.650,12.560,1.470,-5.030,4.050,-0.660,-42.375,-7.750,3.375,4.380,8.500,2.130,26,0,0,0,1
9082,0.375,27.375,-76.250,0.173,-1.290,1.230,-1.280,12.310,1.580,-5.800,3.850,-0.480,-42.375,-7.750,3.375,4.510,8.450,2.060,26,0,0,0,1
9091,0.375,27.375,-76.250,0.176,-1.210,1.237,-2.230,12.510,1.400,-6.860,4.100,-0.590,-42.375,-7.750,3.375,4.630,8.400,1.990,26,0,0,0,1
9102,0.125,28.188,-76.562,0.257,-1.005,1.044,-2.260,12.750,1.550,-7.000,4.380,-0.370,-42.375,-7.750,3.375,4.740,8.360,1.930,26,0,0,0,1
9112,359.875,29.438,-77.438,0.304,-1.164,0.731,-2.610,11.850,1.870,-7.430,3.520,0.020,-42.375,-7.750,3.375,4.820,8.330,1.850,26,0,0,0,1
9120,359.875,29.438,-77.438,0.304,-1.164,0.731,-3.920,12.260,1.640,-7.430,3.520,0.020,-43.500,-4.250,5.062,4.890,8.310,1.770,26,0,0,0,1
9127,0.000,29.875,-77.938,0.301,-1.270,0.614,-3.920,12.260,1.640,-8.810,3.950,-0.120,-43.500,-4.250,5.062,4.950,8.290,1.680,26,0,0,0,1
9135,0.188,30.312,-78.500,0.315,-1.346,0.479,-4.880,12.870,0.680,-9.830,4.580,-0.990,-43.500,-4.250,5.062,5.000,8.280,1.570,26,0,0,0,1
9145,0.438,30.688,-79.250,0.489,-1.443,0.389,-9.280,13.120,-1.150,-10.870,4.780,-1.720,-43.500,-4.250,5.062,5.050,8.270,1.440,26,0,0,0,1
9156,0.625,31.000,-80.062,0.774,-1.400,0.312,-9.120,13.310,-2.450,-14.330,4.850,-2.600,-43.500,-4.250,5.062,5.080,8.280,1.270,26,0,0,0,1
9167,0.750,31.250,-81.250,1.307,-1.357,0.194,-9.120,13.310,-2.450,-14.210,5.020,-3.720,-43.500,-4.250,5.062,5.120,8.290,1.050,26,0,0,0,1
9175,0.812,31.500,-82.688,1.662,-1.582,0.259,-7.130,12.590,-2.930,-12.260,4.300,-3.980,-42.250,-3.000,6.562,5.120,8.290,1.050,26,0,0,0,1
9183,0.750,31.875,-84.000,1.581,-1.404,0.523,-6.340,13.220,-1.250,-11.520,4.930,-2.120,-42.250,-3.000,6.562,5.180,8.280,0.860,26,0,0,0,1
9197,0.562,32.062,-85.250,1.574,-1.047,0.284,-4.130,12.710,-1.800,-11.610,4.770,-2.600,-42.250,-3.000,6.562,5.180,8.310,0.510,26,0,0,0,1
9207,0.688,31.875,-86.375,1.614,-0.674,-0.446,-1.470,12.790,-0.510,-9.310,4.400,-2.310,-42.250,-3.000,6.562,5.110,8.350,0.380,26,0,0,0,1
9218,0.875,31.375,-87.312,1.450,-0.296,-0.831,-1.470,12.790,-0.510,-6.580,4.430,-0.900,-42.250,-3.000,6.562,5.110,8.350,0.380,26,0,0,0,1
9225,1.062,30.875,-87.812,0.972,0.190,-0.964,2.600,11.990,4.880,-2.430,3.590,4.560,-41.750,-2.562,10.188,5.030,8.400,0.310,26,0,0,0,1
9233,1.250,30.250,-87.750,0.281,0.694,-1.110,4.300,11.950,3.650,-0.630,3.490,3.330,-41.750,-2.562,10.188,4.940,8.460,0.320,26,0,0,0,1
9243,1.562,29.438,-87.500,0.117,0.959,-1.353,5.780,12.430,2.740,0.950,3.900,2.380,-41.750,-2.562,10.188,4.820,8.520,0.360,26,0,0,0,1
9254,2.000,28.562,-87.438,0.285,0.819,-1.613,5.750,12.860,3.460,1.060,4.260,3.080,-41.750,-2.562,10.188,4.690,8.600,0.370,26,0,0,0,1
9265,2.625,27.438,-87.500,0.444,0.735,-1.929,7.200,14.160,4.570,2.670,5.470,4.200,-41.750,-2.562,10.188,4.520,8.690,0.370,26,0,0,0,1
9273,3.250,26.250,-87.625,0.550,0.804,-2.109,8.660,14.650,2.620,4.310,5.860,2.260,-39.188,-2.562,10.500,4.340,8.780,0.360,26,0,0,0,1
9280,3.250,26.250,-87.625,0.550,0.804,-2.109,8.920,15.430,1.280,4.310,5.860,2.260,-39.188,-2.562,10.500,4.150,8.870,0.320,26,0,0,0,1
9288,3.938,25.000,-87.875,0.800,0.794,-2.259,8.740,16.640,2.020,4.800,7.670,1.750,-39.188,-2.562,10.500,3.940,8.970,0.260,26,0,0,0,1
9298,4.812,23.688,-88.250,0.898,0.531,-2.356,9.440,16.040,1.290,5.690,6.980,1.070,-39.188,-2.562,10.500,3.750,9.050,0.210,26,0,0,0,1
9309,5.625,22.500,-88.625,0.794,0.403,-2.173,9.440,14.860,0.110,5.860,5.740,-0.040,-39.188,-2.562,10.500,3.580,9.120,0.150,26,0,0,0,1
9319,6.375,21.438,-89.000,0.779,0.349,-1.912,9.470,12.930,0.470,5.860,5.740,-0.040,-39.188,-2.562,10.500,3.420,9.190,0.100,26,0,0,0,1
9326,7.000,20.375,-89.375,0.804,0.379,-1.852,9.470,12.930,0.470,6.050,3.740,0.370,-40.250,-6.875,9.250,3.420,9.190,0.100,26,0,0,0,1
9334,7.812,19.312,-89.688,0.689,0.331,-1.943,10.790,10.010,0.450,7.540,0.760,0.410,-40.250,-6.875,9.250,3.240,9.250,0.040,26,0,0,0,1
9344,8.750,18.188,-89.938,0.548,0.123,-2.001,9.220,9.280,-0.190,6.150,-0.020,-0.190,-40.250,-6.875,9.250,3.060,9.310,0.000,26,0,0,0,1
9355,9.875,17.000,-90.125,0.376,0.033,-2.189,8.510,9.250,-0.230,5.640,-0.120,-0.200,-40.250,-6.875,9.250,2.640,9.440,-0.050,26,0,0,0,1
9366,11.250,15.625,-90.312,0.287,-0.085,-2.443,7.530,8.440,-0.260,4.890,-1.000,-0.200,-40.250,-6.875,9.250,2.640,9.440,-0.050,26,0,0,0,1
9374,13.000,14.062,-90.438,0.109,-0.409,-2.764,7.430,8.590,-0.620,5.040,-0.910,-0.540,-38.062,-9.688,9.188,2.390,9.510,-0.070,26,0,0,0,1
9381,13.000,14.062,-90.438,0.109,-0.409,-2.764,7.080,9.630,-1.310,4.960,0.050,-1.200,-38.062,-9.688,9.188,2.110,9.570,-0.100,26,0,0,0,1
9389,14.812,12.438,-90.625,0.238,-0.417,-3.004,6.540,8.420,-1.810,4.710,-1.200,-1.630,-38.062,-9.688,9.188,1.830,9.630,-0.170,26,0,0,0,1
9399,16.562,10.750,-91.000,0.697,-0.176,-3.015,6.060,8.370,-2.370,4.500,-1.300,-2.110,-38.062,-9.688,9.188,1.550,9.670,-0.250,26,0,0,0,1
9410,18.250,9.062,-91.500,0.794,-0.238,-2.999,5.790,7.910,-2.040,4.500,-1.800,-1.700,-38.062,-9.688,9.188,1.280,9.710,-0.340,26,0,0,0,1
9419,19.812,7.500,-92.000,0.932,-0.139,-2.832,5.790,7.910,-2.040,4.500,-1.800,-1.700,-38.062,-9.688,9.188,1.040,9.740,-0.430,26,0,0,0,1
9427,21.188,6.062,-92.562,0.988,0.010,-2.609,5.500,7.460,-2.020,4.460,-2.270,-1.580,-34.562,-13.062,10.750,1.040,9.740,-0.430,26,0,0,0,1
9434,22.438,4.688,-93.062,1.019,0.158,-2.470,5.430,7.020,-1.470,4.630,-2.720,-0.940,-34.562,-13.062,10.750,0.800,9.750,-0.530,26,0,0,0,1
9445,23.500,3.438,-93.625,1.004,0.259,-2.345,6.040,5.890,-0.260,5.450,-3.870,0.350,-34.562,-13.062,10.750,0.580,9.760,-0.620,26,0,0,0,1
9455,24.625,2.188,-94.125,0.932,0.271,-2.282,6.470,5.690,0.410,6.090,-4.080,1.120,-34.562,-13.062,10.750,0.150,9.770,-0.780,26,0,0,0,1
9466,25.750,0.875,-94.562,0.795,0.199,-2.317,6.320,5.740,0.670,6.160,-4.030,1.460,-34.562,-13.062,10.750,0.150,9.770,-0.780,26,0,0,0,1
9474,26.938,-0.312,-94.938,0.637,0.207,-2.339,5.410,5.200,1.430,5.470,-4.560,2.280,-32.875,-17.375,11.688,-0.060,9.760,-0.840,26,0,0,0,1
9482,26.938,-0.312,-94.938,0.637,0.207,-2.339,5.370,5.330,1.580,5.650,-4.420,2.470,-32.875,-17.375,11.688,-0.280,9.760,-0.880,26,0,0,0,1
9489,28.125,-1.625,-95.188,0.443,0.160,-2.323,5.520,5.390,1.580,6.010,-4.350,2.500,-32.875,-17.375,11.688,-0.490,9.750,-0.920,26,0,0,0,1
9500,29.312,-2.875,-95.375,0.376,0.087,-2.242,6.080,5.300,1.310,6.770,-4.430,2.280,-32.875,-17.375,11.688,-0.690,9.730,-0.960,26,0,0,0,1
9510,30.562,-4.062,-95.625,0.435,-0.039,-2.162,6.720,4.950,1.870,7.620,-4.760,2.880,-32.875,-17.375,11.688,-0.890,9.710,-1.010,26,0,0,0,1
9519,31.875,-5.188,-95.938,0.557,-0.209,-2.065,6.920,4.750,2.380,7.620,-4.760,2.880,-32.875,-17.375,11.688,-1.080,9.680,-1.060,26,0,0,0,1
9527,33.188,-6.312,-96.250,0.525,-0.309,-1.996,6.920,4.750,2.380,8.000,-4.930,3.440,-32.188,-21.250,11.375,-1.080,9.680,-1.060,26,0,0,0,1
9535,34.625,-7.438,-96.438,0.385,-0.460,-2.003,6.670,4.860,2.540,7.950,-4.790,3.630,-32.188,-21.250,11.375,-1.270,9.660,-1.090,26,0,0,0,1
9545,36.125,-8.625,-96.562,0.251,-0.530,-2.032,6.670,4.640,2.470,8.140,-4.980,3.580,-32.188,-21.250,11.375,-1.660,9.600,-1.110,26,0,0,0,1
9556,37.562,-9.750,-96.562,0.132,-0.612,-1.987,6.350,3.600,2.350,8.360,-5.450,3.550,-32.188,-21.250,11.375,-1.830,9.560,-1.100,26,0,0,0,1
9567,39.062,-10.750,-96.562,-0.008,-0.741,-1.821,6.350,3.600,2.350,8.190,-5.960,3.450,-32.188,-21.250,11.375,-1.830,9.560,-1.100,26,0,0,0,1
9575,40.500,-11.750,-96.312,-0.209,-0.879,-1.676,5.770,3.090,2.370,7.770,-6.440,3.440,-30.000,-25.375,11.562,-2.000,9.540,-1.060,26,0,0,0,1
9582,40.500,-11.750,-96.312,-0.480,-0.930,-1.710,4.280,3.590,2.840,6.450,-5.910,3.840,-30.000,-25.375,11.562,-2.170,9.510,-1.000,26,0,0,0,1
9591,41.938,-12.750,-96.000,-0.819,-0.879,-1.633,3.510,4.540,2.720,5.840,-4.930,3.630,-30.000,-25.375,11.562,-2.320,9.480,-0.900,26,0,0,0,1
9601,43.250,-13.688,-95.438,-1.066,-0.784,-1.379,2.710,4.910,3.160,5.170,-4.540,3.950,-30.000,-25.375,11.562,-2.460,9.450,-0.790,26,0,0,0,1
9611,44.312,-14.500,-94.750,-1.222,-0.776,-1.180,1.650,5.540,3.300,4.230,-3.890,3.970,-30.000,-25.375,11.562,-2.570,9.430,-0.660,26,0,0,0,1
9620,45.250,-15.188,-94.000,-1.222,-0.776,-1.180,-2.710,6.640,1.690,4.230,-3.890,3.970,-30.000,-25.375,11.562,-2.680,9.410,-0.530,26,0,0,0,1
9627,46.062,-15.812,-93.250,-1.139,-0.708,-1.102,-2.710,6.640,1.690,-0.030,-2.770,2.230,-26.688,-27.188,12.250,-2.680,9.410,-0.530,26,0,0,0,1
9635,46.750,-16.500,-92.750,-0.885,-0.278,-1.232,-3.640,8.390,0.020,-0.850,-0.990,0.480,-26.688,-27.188,12.250,-2.790,9.380,-0.450,26,0,0,0,1
9646,47.250,-17.250,-92.500,-0.469,0.271,-1.345,-3.540,9.950,-2.370,-0.630,0.590,-1.950,-26.688,-27.188,12.250,-3.030,9.310,-0.430,26,0,0,0,1
9656,47.750,-18.000,-92.625,0.035,0.437,-1.330,-9.460,11.980,-5.720,-2.550,1.350,-5.920,-26.688,-27.188,12.250,-3.130,9.270,-0.460,26,0,0,0,1
9667,48.375,-18.625,-92.875,0.327,0.165,-1.188,-9.460,11.980,-5.720,-6.320,2.700,-5.250,-26.688,-27.188,12.250,-3.130,9.270,-0.460,26,0,0,0,1
9675,48.688,-19.125,-93.000,0.137,0.502,-0.925,-11.320,10.820,-4.640,-8.100,1.570,-4.150,-24.000,-29.062,12.000,-3.210,9.240,-0.490,26,0,0,0,1
9683,48.688,-19.125,-93.000,0.029,0.780,-0.552,-11.010,10.000,-4.080,-7.750,0.770,-3.560,-24.000,-29.062,12.000,-3.260,9.230,-0.520,26,0,0,0,1
9691,48.562,-19.438,-93.188,0.286,0.271,-0.120,-14.950,11.710,-5.260,-11.680,2.490,-4.710,-24.000,-29.062,12.000,-3.270,9.220,-0.550,26,0,0,0,1
9702,48.500,-19.500,-93.438,0.804,-0.420,0.211,-19.840,12.950,-5.160,-16.580,3.720,-4.550,-24.000,-29.062,12.000,-3.250,9.220,-0.610,26,0,0,0,1
9712,48.812,-19.375,-93.750,1.037,-0.341,0.604,-22.830,14.600,-4.430,-19.620,5.360,-3.730,-24.000,-29.062,12.000,-3.200,9.240,-0.690,26,0,0,0,1
9720,48.875,-19.062,-94.250,1.037,-0.341,0.604,-16.810,13.760,-0.110,-19.620,5.360,-3.730,-23.688,-30.562,12.375,-3.110,9.260,-0.770,26,0,0,0,1
9728,48.188,-18.500,-94.750,0.671,0.445,0.946,-16.810,13.760,-0.110,-13.690,4.490,0.650,-23.688,-30.562,12.375,-3.030,9.280,-0.800,26,0,0,0,1
9736,47.062,-18.000,-94.938,-0.016,1.273,0.803,-9.450,11.510,-0.300,-6.420,2.220,0.500,-23.688,-30.562,12.375,-2.980,9.300,-0.820,26,0,0,0,1
9746,45.688,-17.688,-95.062,-0.345,1.775,0.443,-1.130,7.930,-0.290,-1.530,-0.090,0.800,-23.688,-30.562,12.375,-2.950,9.310,-0.830,26,0,0,0,1
9757,44.312,-17.500,-95.125,-0.568,2.162,0.082,2.780,7.190,1.580,1.820,-1.370,0.540,-23.688,-30.562,12.375,-2.930,9.310,-0.850,26,0,0,0,1
9768,42.562,-17.375,-95.188,-0.682,2.752,0.039,2.780,7.190,1.580,5.710,-2.120,2.440,-23.688,-30.562,12.375,-2.930,9.310,-0.850,26,0,0,0,1
9776,40.562,-17.125,-95.375,-0.710,3.137,0.115,3.660,6.430,2.660,6.560,-2.890,3.540,-24.250,-28.375,11.562,-2.890,9.320,-0.870,26,0,0,0,1
9783,38.438,-16.875,-95.562,-0.654,3.347,0.158,3.510,5.070,6.570,6.370,-4.260,7.480,-24.250,-28.375,11.562,-2.850,9.330,-0.910,26,0,0,0,1
9792,38.438,-16.875,-95.562,-0.762,2.644,0.393,6.990,4.180,7.870,9.780,-5.170,8.790,-24.250,-28.375,11.562,-2.790,9.350,-0.910,26,0,0,0,1
9802,36.500,-16.500,-95.562,-0.416,1.156,1.013,20.250,5.000,0.780,22.940,-4.380,1.680,-24.250,-28.375,11.562,-2.690,9.380,-0.900,26,0,0,0,1
9812,35.188,-15.875,-95.500,0.211,0.469,1.851,20.350,8.210,-3.190,22.870,-1.210,-2.250,-24.250,-28.375,11.562,-2.510,9.430,-0.940,26,0,0,0,1
10067,17.000,-1.688,-86.875,-0.938,0.045,1.266,2.370,9.680,1.690,2.670,-0.100,1.160,-32.000,-22.250,3.062,-0.290,9.780,0.530,26,0,0,0,1
10075,16.375,-1.000,-86.438,-0.805,0.010,1.156,3.910,9.750,1.630,4.090,-0.030,1.020,-33.500,-20.500,2.250,-0.180,9.780,0.600,26,0,0,0,1
10082,16.375,-1.000,-86.438,-0.805,0.010,1.156,3.270,9.800,1.470,3.330,0.010,0.810,-33.500,-20.500,2.250,-0.060,9.780,0.660,26,0,0,0,1
10091,15.812,-0.375,-86.062,-0.629,-0.232,1.168,2.820,10.000,0.990,2.780,0.220,0.270,-33.500,-20.500,2.250,0.040,9.780,0.720,26,0,0,0,1
10101,15.375,0.250,-85.750,-0.544,-0.372,1.204,2.310,9.950,0.880,2.140,0.180,0.110,-33.500,-20.500,2.250,0.170,9.770,0.770,26,0,0,0,1
10111,14.875,1.000,-85.438,-0.530,-0.503,1.277,1.530,9.530,0.660,1.230,-0.230,-0.150,-33.500,-20.500,2.250,0.300,9.760,0.820,26,0,0,0,1
10120,14.500,1.750,-85.188,-0.543,-0.619,1.317,0.310,9.530,0.360,1.230,-0.230,-0.150,-33.500,-20.500,2.250,0.430,9.750,0.870,26,0,0,0,1
10128,14.125,2.500,-84.875,-0.577,-0.661,1.307,0.310,9.530,0.360,-0.110,-0.220,-0.500,-35.250,-19.750,2.188,0.430,9.750,0.870,26,0,0,0,1
10136,13.688,3.250,-84.562,-0.578,-0.611,1.305,0.090,9.810,0.650,-0.460,0.060,-0.260,-35.250,-19.750,2.188,0.550,9.740,0.920,26,0,0,0,1
10146,13.312,4.000,-84.188,-0.672,-0.629,1.296,-0.180,9.730,0.880,-0.860,0.000,-0.090,-35.250,-19.750,2.188,0.810,9.710,1.060,26,0,0,0,1
10157,13.000,4.750,-83.750,-0.867,-0.686,1.295,-0.420,9.270,1.410,-1.230,-0.430,0.350,-35.250,-19.750,2.188,0.940,9.690,1.150,26,0,0,0,1
10168,12.688,5.500,-83.188,-1.031,-0.724,1.299,-0.130,8.820,1.870,-1.070,-0.860,0.720,-35.250,-19.750,2.188,0.940,9.690,1.150,26,0,0,0,1
10175,12.375,6.250,-82.625,-1.091,-0.813,1.313,-0.270,9.370,1.600,-1.350,-0.290,0.360,-36.000,-16.750,3.062,1.070,9.660,1.240,26,0,0,0,1
10183,12.375,6.250,-82.625,-1.125,-0.874,1.369,-0.820,9.850,1.160,-2.040,0.220,-0.170,-36.000,-16.750,3.062,1.210,9.630,1.340,26,0,0,0,1
10191,12.125,7.125,-82.062,-1.125,-0.874,1.369,-2.000,9.690,0.390,-3.360,0.090,-1.030,-36.000,-16.750,3.062,1.360,9.600,1.430,26,0,0,0,1
10201,11.812,7.938,-81.500,-1.128,-0.869,1.416,-2.240,9.830,0.330,-3.740,0.260,-1.180,-36.000,-16.750,3.062,1.500,9.570,1.520,26,0,0,0,1
10211,11.500,8.812,-80.938,-1.068,-0.825,1.425,-2.640,10.300,0.160,-4.290,0.770,-1.440,-36.000,-16.750,3.062,1.650,9.530,1.600,26,0,0,0,1
10221,11.188,9.688,-80.375,-1.052,-0.842,1.468,-2.960,10.140,0.350,-4.290,0.770,-1.440,-36.000,-16.750,3.062,1.810,9.480,1.680,26,0,0,0,1
10228,10.750,10.625,-79.875,-1.002,-0.924,1.622,-2.960,10.140,0.350,-4.780,0.650,-1.320,-36.750,-14.375,3.750,1.810,9.480,1.680,26,0,0,0,1
10236,10.312,11.688,-79.438,-0.975,-0.901,1.731,-3.090,9.480,0.900,-5.080,0.040,-0.850,-36.750,-14.375,3.750,1.990,9.440,1.750,26,0,0,0,1
10246,9.812,12.688,-78.875,-1.038,-0.748,1.720,-2.730,9.320,0.930,-4.890,-0.060,-0.900,-36.750,-14.375,3.750,2.310,9.330,1.920,26,0,0,0,1
10257,9.250,13.625,-78.312,-1.148,-0.540,1.620,-0.820,9.750,1.650,-4.160,-0.120,-0.680,-36.750,-14.375,3.750,2.450,9.270,2.030,26,0,0,0,1
10268,8.688,14.500,-77.625,-1.250,-0.300,1.497,-0.820,9.750,1.650,-3.280,0.480,-0.380,-36.750,-14.375,3.750,2.450,9.270,2.030,26,0,0,0,1
10276,8.125,15.250,-76.875,-1.199,-0.139,1.426,1.530,10.510,2.180,-1.050,1.290,0.050,-37.875,-12.188,4.500,2.580,9.210,2.130,26,0,0,0,1
10283,8.125,15.250,-76.875,-1.004,-0.145,1.379,2.310,10.600,2.280,-0.390,1.440,0.060,-37.875,-12.188,4.500,2.710,9.150,2.220,26,0,0,0,1
10292,7.500,16.062,-76.312,-0.767,-0.205,1.333,2.560,10.600,2.300,-0.270,1.490,0.010,-37.875,-12.188,4.500,2.830,9.100,2.280,26,0,0,0,1
10302,7.000,16.750,-75.875,-0.583,-0.308,1.298,2.030,9.820,2.230,-0.920,0.770,-0.090,-37.875,-12.188,4.500,2.950,9.050,2.320,26,0,0,0,1
10312,6.438,17.500,-75.562,-0.454,-0.484,1.272,1.340,9.500,2.000,-1.730,0.500,-0.340,-37.875,-12.188,4.500,3.070,9.000,2.350,26,0,0,0,1
10321,6.000,18.250,-75.312,-0.454,-0.484,1.272,0.610,9.530,1.580,-1.730,0.500,-0.340,-37.875,-12.188,4.500,3.200,8.960,2.360,26,0,0,0,1
10329,5.688,19.062,-75.188,-0.410,-0.675,1.250,0.610,9.530,1.580,-2.580,0.570,-0.780,-37.875,-9.188,2.750,3.200,8.960,2.360,26,0,0,0,1
10337,5.375,19.812,-75.062,-0.377,-0.849,1.228,0.040,9.740,1.020,-3.280,0.830,-1.340,-37.875,-9.188,2.750,3.450,8.860,2.370,26,0,0,0,1
10347,5.125,20.625,-75.000,-0.343,-0.990,1.218,-0.420,10.210,0.850,-3.880,1.340,-1.510,-37.875,-9.188,2.750,3.580,8.810,2.360,26,0,0,0,1
10358,4.938,21.438,-74.938,-0.353,-1.060,1.245,-0.030,11.040,-0.180,-3.980,1.800,-1.810,-37.875,-9.188,2.750,3.710,8.760,2.350,26,0,0,0,1
10369,4.750,22.250,-74.938,-0.308,-1.082,1.250,-0.030,11.040,-0.180,-3.750,2.270,-2.530,-37.875,-9.188,2.750,3.710,8.760,2.350,26,0,0,0,1
10376,4.500,23.062,-75.000,-0.192,-1.095,1.234,0.710,10.600,0.220,-3.120,1.890,-2.100,-39.062,-7.062,5.500,3.840,8.710,2.330,26,0,0,0,1
10384,4.500,23.062,-75.000,-0.194,-1.094,1.233,0.890,10.860,0.800,-3.080,2.200,-1.500,-39.062,-7.062,5.500,3.970,8.660,2.300,26,0,0,0,1
10393,4.312,23.875,-75.062,-0.178,-1.194,1.247,0.750,11.290,1.080,-3.350,2.680,-1.190,-39.062,-7.062,5.500,4.100,8.610,2.270,26,0,0,0,1
10403,4.125,24.750,-75.188,-0.051,-1.306,1.265,0.220,11.420,1.970,-4.010,2.860,-0.240,-39.062,-7.062,5.500,4.240,8.550,2.220,26,0,0,0,1
10413,3.938,25.562,-75.375,0.028,-1.277,1.272,-1.150,11.970,2.710,-5.530,3.460,0.540,-39.062,-7.062,5.500,4.370,8.500,2.160,26,0,0,0,1
10422,3.750,26.438,-75.688,0.028,-1.277,1.272,-2.030,12.380,2.710,-5.530,3.460,0.540,-38.250,-5.562,5.375,4.490,8.450,2.100,26,0,0,0,1
10429,3.500,27.250,-76.000,0.106,-1.236,1.236,-2.030,12.380,2.710,-6.520,3.920,0.600,-38.250,-5.562,5.375,4.620,8.400,2.040,26,0,0,0,1
10437,3.312,28.062,-76.312,0.152,-1.203,1.189,-2.920,12.440,2.370,-7.540,4.030,0.330,-38.250,-5.562,5.375,4.730,8.350,1.970,26,0,0,0,1
10447,3.125,28.812,-76.688,0.178,-1.151,1.102,-3.840,12.520,2.280,-8.060,4.200,0.000,-38.250,-5.562,5.375,4.830,8.310,1.900,26,0,0,0,1
10458,2.938,29.562,-77.062,0.157,-1.160,1.041,-3.950,12.650,1.900,-8.680,4.210,0.370,-38.250,-5.562,5.375,4.930,8.270,1.840,26,0,0,0,1
10469,2.875,30.125,-77.438,0.143,-1.164,0.881,-3.950,12.650,1.900,-8.880,4.370,0.050,-38.250,-5.562,5.375,4.930,8.270,1.840,26,0,0,0,1
10477,2.938,30.625,-77.875,0.202,-1.201,0.639,-4.110,13.040,0.450,-9.120,4.800,-1.310,-38.688,-4.500,8.250,5.000,8.240,1.760,26,0,0,0,1
10484,3.062,31.062,-78.500,0.432,-1.240,0.547,-7.190,13.240,-0.310,-12.250,5.010,-1.980,-38.688,-4.500,8.250,5.060,8.220,1.670,26,0,0,0,1
10493,3.062,31.062,-78.500,0.723,-1.150,0.517,-9.060,12.800,0.190,-14.190,4.590,-1.360,-38.688,-4.500,8.250,5.120,8.210,1.550,26,0,0,0,1
10503,3.062,31.500,-79.250,1.109,-1.033,0.439,-10.350,13.570,-2.160,-15.520,5.360,-3.580,-38.688,-4.500,8.250,5.170,8.200,1.410,26,0,0,0,1
10514,2.938,31.812,-80.188,1.886,-1.120,0.416,-9.050,14.140,-4.690,-14.270,5.920,-5.900,-38.688,-4.500,8.250,5.220,8.210,1.210,26,0,0,0,1
10522,2.688,32.125,-81.562,1.886,-1.120,0.416,-6.070,12.590,-1.880,-14.270,5.920,-5.900,-38.562,-3.000,9.500,5.270,8.200,0.980,26,0,0,0,1
10530,2.312,32.500,-83.062,2.035,-1.210,0.516,-6.070,12.590,-1.880,-11.350,4.380,-2.870,-38.562,-3.000,9.500,5.270,8.200,0.980,26,0,0,0,1
10538,2.000,32.750,-84.312,1.727,-0.766,0.319,-4.710,13.180,-1.750,-10.020,4.970,-2.560,-38.562,-3.000,9.500,5.300,8.220,0.640,26,0,0,0,1
10548,1.875,32.688,-85.438,1.670,-0.598,-0.164,-2.230,12.860,-0.510,-8.590,4.360,-2.180,-38.562,-3.000,9.500,5.250,8.260,0.510,26,0,0,0,1
10559,1.938,32.375,-86.438,1.509,-0.315,-0.548,2.660,12.150,4.900,-7.490,4.600,-1.020,-38.562,-3.000,9.500,5.180,8.310,0.430,26,0,0,0,1
10570,2.062,31.875,-86.938,1.045,0.193,-0.954,2.660,12.150,4.900,-2.510,3.840,4.460,-38.562,-3.000,9.500,5.180,8.310,0.430,26,0,0,0,1
10577,2.312,31.188,-86.938,0.394,0.711,-1.168,3.510,11.740,2.810,-1.560,3.360,2.370,-38.062,-1.188,11.000,5.080,8.370,0.440,26,0,0,0,1
10585,2.562,30.375,-86.812,0.262,0.989,-1.402,4.720,12.080,1.870,-0.240,3.640,1.400,-38.062,-1.188,11.000,4.960,8.440,0.460,26,0,0,0,1
10594,2.562,30.375,-86.812,0.493,0.806,-1.743,5.900,13.940,3.330,1.090,5.410,2.860,-38.062,-1.188,11.000,4.810,8.520,0.460,26,0,0,0,1
10604,3.000,29.375,-86.812,0.605,0.666,-2.034,7.300,14.730,3.500,2.660,6.110,3.050,-38.062,-1.188,11.000,4.640,8.620,0.440,26,0,0,0,1
10614,4.312,27.000,-87.062,0.541,0.861,-2.164,9.410,14.960,2.130,4.950,6.240,1.690,-38.062,-1.188,11.000,4.460,8.720,0.430,26,0,0,0,1
10622,4.312,27.000,-87.062,0.541,0.861,-2.164,9.740,15.240,1.060,4.950,6.240,1.690,-37.875,-0.750,12.000,4.260,8.810,0.410,26,0,0,0,1
10630,5.000,25.750,-87.312,0.710,0.795,-2.223,9.740,15.240,1.060,5.480,6.420,0.650,-37.875,-0.750,12.000,4.060,8.910,0.340,26,0,0,0,1
10638,5.938,24.438,-87.750,0.928,0.391,-2.342,8.130,16.460,2.150,4.060,7.540,1.800,-37.875,-0.750,12.000,3.860,9.000,0.270,26,0,0,0,1
10648,6.938,23.188,-88.250,0.936,0.129,-2.296,9.240,14.720,0.200,5.020,7.080,1.580,-37.875,-0.750,12.000,3.680,9.080,0.190,26,0,0,0,1
10659,7.938,22.000,-88.750,0.902,-0.070,-2.101,9.370,10.660,1.010,5.550,5.640,0.000,-37.875,-0.750,12.000,3.510,9.150,0.110,26,0,0,0,1
10670,8.938,20.938,-89.250,0.834,-0.158,-1.910,9.370,10.660,1.010,5.860,1.510,0.890,-37.875,-0.750,12.000,3.350,9.210,0.050,26,0,0,0,1
10678,9.875,20.000,-89.625,0.553,-0.119,-1.761,8.910,9.500,0.710,5.550,0.290,0.650,-37.500,-7.750,10.500,3.350,9.210,0.050,26,0,0,0,1
10685,10.812,19.000,-89.812,0.327,-0.046,-1.841,8.040,8.980,0.670,4.850,-0.280,0.650,-37.500,-7.750,10.500,3.190,9.270,0.020,26,0,0,0,1
10694,10.812,19.000,-89.812,0.187,0.015,-2.170,7.710,8.540,0.690,4.720,-0.790,0.680,-37.500,-7.750,10.500,2.990,9.330,0.010,26,0,0,0,1
10704,13.312,16.375,-90.000,0.155,-0.002,-2.465,7.600,8.370,0.360,4.820,-1.030,0.370,-37.500,-7.750,10.500,2.770,9.400,0.000,26,0,0,0,1
10715,14.812,14.938,-90.062,0.113,-0.116,-2.610,7.580,8.170,0.270,5.040,-1.290,0.290,-37.500,-7.750,10.500,2.530,9.470,-0.010,26,0,0,0,1
10723,14.812,14.938,-90.062,0.113,-0.116,-2.610,7.520,8.690,-0.040,5.040,-1.290,0.290,-37.062,-8.750,11.750,2.270,9.530,-0.020,26,0,0,0,1
10730,16.500,13.438,-90.125,0.073,-0.268,-2.777,7.520,8.690,-0.040,5.240,-0.840,-0.010,-37.062,-8.750,11.750,2.010,9.590,-0.060,26,0,0,0,1
10738,18.125,11.875,-90.312,0.307,-0.147,-2.815,6.960,9.050,1.040,4.940,-0.540,1.100,-37.062,-8.750,11.750,1.760,9.640,-0.100,26,0,0,0,1
10749,19.500,10.375,-90.625,0.551,0.112,-2.683,6.520,6.920,0.110,4.880,-2.770,0.690,-37.062,-8.750,11.750,1.520,9.680,-0.150,26,0,0,0,1
10759,20.812,8.938,-90.875,0.547,0.149,-2.611,6.280,7.110,-0.070,4.990,-2.750,0.270,-37.062,-8.750,11.750,1.290,9.710,-0.210,26,0,0,0,1
10770,22.000,7.562,-91.188,0.583,0.221,-2.489,6.280,7.110,-0.070,4.990,-2.600,0.130,-37.062,-8.750,11.750,1.290,9.710,-0.210,26,0,0,0,1
10778,23.125,6.188,-91.562,0.712,0.308,-2.447,6.060,6.650,-0.330,5.000,-3.080,-0.060,-34.562,-14.562,11.250,1.060,9.740,-0.270,26,0,0,0,1
10786,24.188,4.812,-92.062,0.874,0.464,-2.440,6.670,6.340,0.440,5.840,-3.410,0.790,-34.562,-14.562,11.250,0.830,9.760,-0.350,26,0,0,0,1
10795,25.188,3.500,-92.562,0.944,0.528,-2.424,7.080,6.110,1.030,6.470,-3.660,1.470,-34.562,-14.562,11.250,0.600,9.770,-0.430,26,0,0,0,1
10805,26.125,2.250,-93.000,0.898,0.500,-2.306,6.920,5.590,1.020,6.530,-4.180,1.540,-34.562,-14.562,11.250,0.380,9.780,-0.520,26,0,0,0,1
10815,27.062,1.000,-93.438,0.806,0.537,-2.231,6.060,3.790,1.290,5.880,-5.990,1.890,-34.562,-14.562,11.250,0.180,9.780,-0.590,26,0,0,0,1
10823,27.062,1.000,-93.438,0.806,0.537,-2.231,6.250,3.680,1.830,5.880,-5.990,1.890,-31.688,-18.062,11.250,-0.030,9.780,-0.650,26,0,0,0,1
10831,27.938,-0.188,-93.812,0.614,0.656,-2.299,6.250,3.680,1.830,6.280,-6.090,2.490,-31.688,-18.062,11.250,-0.250,9.770,-0.690,26,0,0,0,1
10838,28.875,-1.438,-94.062,0.456,0.637,-2.394,6.840,4.160,2.140,7.100,-5.610,2.830,-31.688,-18.062,11.250,-0.470,9.760,-0.730,26,0,0,0,1
10849,29.875,-2.750,-94.250,0.392,0.517,-2.358,7.050,4.890,2.690,7.380,-4.960,3.240,-31.688,-18.062,11.250,-0.680,9.750,-0.770,26,0,0,0,1
10860,30.875,-4.000,-94.500,0.353,0.435,-2.259,7.260,4.850,2.650,7.740,-4.850,3.460,-31.688,-18.062,11.250,-0.880,9.730,-0.800,26,0,0,0,1
10870,31.875,-5.125,-94.688,0.320,0.393,-2.143,7.260,4.850,2.650,8.150,-4.870,3.450,-31.688,-18.062,11.250,-1.070,9.710,-0.830,26,0,0,0,1
10878,32.750,-6.250,-94.875,0.279,0.379,-2.027,7.660,4.450,2.560,8.730,-5.250,3.400,-30.688,-21.375,11.250,-1.070,9.710,-0.830,26,0,0,0,1
10886,33.625,-7.312,-95.062,0.226,0.360,-1.921,8.060,3.270,2.020,9.310,-6.410,2.880,-30.688,-21.375,11.250,-1.240,9.680,-0.860,26,0,0,0,1
10894,33.625,-7.312,-95.062,0.088,0.293,-1.852,7.930,2.970,1.760,9.350,-6.690,2.630,-30.688,-21.375,11.250,-1.420,9.660,-0.870,26,0,0,0,1
10905,34.500,-8.312,-95.125,-0.096,0.199,-1.845,7.600,3.050,1.300,9.190,-6.580,2.170,-30.688,-21.375,11.250,-1.590,9.630,-0.860,26,0,0,0,1
10915,36.375,-10.312,-95.000,-0.251,0.027,-1.786,7.060,3.450,1.360,8.820,-6.150,2.200,-30.688,-21.375,11.250,-1.750,9.610,-0.840,26,0,0,0,1
10923,36.375,-10.312,-95.000,-0.251,0.027,-1.786,4.450,4.700,0.640,8.820,-6.150,2.200,-28.062,-24.250,11.750,-1.910,9.580,-0.800,26,0,0,0,1
10931,37.375,-11.188,-94.750,-0.350,-0.266,-1.645,4.450,4.700,0.640,6.370,-4.870,1.450,-28.062,-24.250,11.750,-1.910,9.580,-0.800,26,0,0,0,1
10938,38.375,-12.000,-94.562,-0.336,-0.433,-1.369,1.760,5.180,0.200,3.800,-4.370,0.970,-28.062,-24.250,11.750,-2.150,9.530,-0.720,26,0,0,0,1
10949,39.125,-12.688,-94.312,-0.399,-0.235,-1.216,-4.160,11.200,-7.750,1.440,-2.970,-1.200,-28.062,-24.250,11.750,-2.270,9.510,-0.720,26,0,0,0,1
10959,39.562,-13.375,-94.312,-0.131,0.406,-1.300,-5.740,12.960,-10.870,-1.880,1.690,-7.030,-28.062,-24.250,11.750,-2.410,9.470,-0.780,26,0,0,0,1
10970,39.875,-14.188,-94.688,0.425,1.134,-1.599,-5.740,12.960,-10.870,-3.330,3.480,-10.080,-28.062,-24.250,11.750,-2.410,9.470,-0.780,26,0,0,0,1
10978,40.438,-15.188,-95.500,1.092,1.054,-1.841,-9.690,14.810,-8.620,-7.110,5.390,-7.710,-25.375,-28.500,12.500,-2.570,9.410,-0.910,26,0,0,0,1
10986,40.438,-15.188,-95.500,0.958,1.220,-1.912,-13.240,15.800,-5.010,-10.500,6.440,-3.980,-25.375,-28.500,12.500,-2.730,9.360,-1.030,26,0,0,0,1
10995,40.938,-16.188,-96.250,0.549,1.428,-1.602,-14.790,12.100,-4.620,-11.920,2.790,-3.500,-25.375,-28.500,12.500,-2.860,9.310,-1.110,26,0,0,0,1
11005,41.062,-16.938,-96.812,0.550,0.192,-1.035,-19.270,11.140,-6.140,-16.310,1.870,-4.970,-25.375,-28.500,12.500,-2.950,9.270,-1.170,26,0,0,0,1
11015,42.875,-17.812,-97.375,0.798,-1.427,-0.407,-25.190,10.600,-4.840,-22.180,1.350,-3.630,-25.375,-28.500,12.500,-3.000,9.250,-1.200,26,0,0,0,1
11023,42.875,-17.812,-97.375,0.798,-1.427,-0.407,-24.070,10.690,-3.860,-22.180,1.350,-3.630,-25.875,-28.875,12.250,-3.010,9.250,-1.200,26,0,0,0,1
11031,43.812,-17.875,-97.375,0.513,-1.486,0.120,-24.070,10.690,-3.860,-21.050,1.430,-2.650,-25.875,-28.875,12.250,-2.970,9.260,-1.180,26,0,0,0,1
11039,43.875,-17.625,-97.250,-0.012,-0.615,0.478,-8.630,10.390,-0.570,-5.650,1.120,0.600,-25.875,-28.875,12.250,-2.950,9.280,-1.140,26,0,0,0,1
11049,43.625,-17.500,-97.000,-0.516,0.043,0.260,0.450,8.530,0.980,-0.290,0.090,0.740,-25.875,-28.875,12.250,-2.940,9.280,-1.100,26,0,0,0,1
11059,43.250,-17.438,-96.750,-0.574,0.410,0.081,1.740,8.450,0.710,3.390,-0.750,2.080,-25.875,-28.875,12.250,-2.950,9.280,-1.060,26,0,0,0,1
11070,42.812,-17.500,-96.500,-0.641,0.674,-0.216,1.740,8.450,0.710,4.700,-0.830,1.780,-25.875,-28.875,12.250,-2.950,9.280,-1.060,26,0,0,0,1
11078,42.000,-17.625,-96.250,-0.936,1.404,-0.305,2.430,8.990,1.410,5.400,-0.290,2.430,-22.875,-29.688,15.062,-2.960,9.290,-1.020,26,0,0,0,1
11086,40.625,-17.438,-96.125,-0.877,2.026,0.085,4.070,7.290,3.780,7.010,-2.000,4.780,-22.875,-29.688,15.062,-2.940,9.300,-0.990,26,0,0,0,1
11094,40.625,-17.438,-96.125,-0.615,2.166,0.403,4.720,4.260,6.730,7.600,-5.050,7.730,-22.875,-29.688,15.062,-2.880,9.310,-1.000,26,0,0,0,1
11104,39.000,-17.062,-96.125,-0.556,1.650,0.607,15.380,3.030,1.480,18.190,-6.300,2.480,-22.875,-29.688,15.062,-2.810,9.340,-1.000,26,0,0,0,1
11115,37.562,-16.625,-96.062,0.014,0.673,1.175,20.200,4.920,-3.130,22.900,-4.440,-2.110,-22.875,-29.688,15.062,-2.700,9.370,-1.010,26,0,0,0,1
11123,36.562,-15.938,-96.188,0.014,0.673,1.175,16.930,8.820,-7.530,22.900,-4.440,-2.110,-25.562,-29.750,12.562,-2.520,9.410,-1.090,26,0,0,0,1
11131,35.500,-14.938,-96.625,0.784,0.193,1.864,16.930,8.820,-7.530,19.460,-0.590,-6.440,-25.562,-29.750,12.562,-2.520,9.410,-1.090,26,0,0,0,1
11139,34.625,-13.875,-97.125,0.974,0.021,1.886,-7.060,16.050,-11.020,-4.700,6.600,-9.840,-25.562,-29.750,12.562,-2.250,9.460,-1.230,26,0,0,0,1
11149,34.188,-13.250,-97.438,0.614,-0.228,1.161,-29.480,29.260,-4.410,-18.810,12.550,-6.810,-25.562,-29.750,12.562,-2.250,9.450,-1.260,26,0,0,0,1
11160,34.312,-13.250,-97.625,0.352,-0.059,-0.031,-23.280,31.330,-1.820,-27.230,19.800,-3.150,-25.562,-29.750,12.562,-2.280,9.450,-1.260,26,0,0,0,1
11171,33.938,-13.438,-97.625,-0.211,0.988,-0.461,-23.280,31.330,-1.820,-20.990,21.880,-0.550,-25.562,-29.750,12.562,-2.280,9.450,-1.260,26,0,0,0,1
11178,31.688,-12.875,-97.250,-1.314,2.640,0.738,1.690,8.750,-2.900,3.880,-0.720,-1.690,-27.375,-28.688,13.062,-2.180,9.480,-1.200,26,0,0,0,1
11186,29.625,-12.062,-96.500,-1.638,1.920,1.197,7.640,3.020,-1.900,9.690,-6.500,-0.810,-27.375,-28.688,13.062,-2.050,9.520,-1.090,26,0,0,0,1
11200,28.250,-11.312,-95.750,-1.510,0.773,1.341,8.380,1.760,5.850,12.650,-8.720,3.840,-27.375,-28.688,13.062,-1.800,9.600,-0.830,26,0,0,0,1
11210,27.250,-10.562,-94.938,-1.527,0.261,1.237,7.460,5.690,8.670,10.190,-7.830,6.680,-27.375,-28.688,13.062,-1.720,9.620,-0.700,26,0,0,0,1
11221,26.375,-10.125,-94.125,-1.474,0.420,0.803,7.460,5.690,8.670,9.180,-3.920,9.380,-27.375,-28.688,13.062,-1.660,9.640,-0.590,26,0,0,0,1
11229,25.750,-9.750,-93.500,-1.249,0.201,0.661,6.640,6.850,7.450,8.300,-2.780,8.040,-28.688,-27.875,11.000,-1.660,9.640,-0.590,26,0,0,0,1
11236,25.375,-9.375,-93.125,-0.590,-0.097,0.705,3.580,9.660,3.620,5.180,0.000,4.160,-28.688,-27.875,11.000,-1.600,9.660,-0.530,26,0,0,0,1
11246,24.938,-8.938,-93.125,-0.020,0.014,0.790,0.350,12.340,0.820,1.880,2.670,1.350,-28.688,-27.875,11.000,-1.520,9.670,-0.530,26,0,0,0,1
11256,24.125,-8.375,-93.062,-0.160,0.476,0.960,2.850,12.450,1.970,4.280,2.760,2.490,-28.688,-27.875,11.000,-1.430,9.680,-0.520,26,0,0,0,1
11267,22.875,-7.625,-92.750,-0.626,0.838,1.286,7.020,11.870,2.660,8.330,2.160,3.140,-28.688,-27.875,11.000,-1.300,9.700,-0.470,26,0,0,0,1
11275,22.875,-7.625,-92.750,-0.961,0.612,1.550,9.010,10.710,2.660,10.170,0.980,3.060,-30.750,-26.750,11.000,-1.160,9.720,-0.390,26,0,0,0,1
11283,21.562,-6.750,-92.250,-0.961,0.612,1.550,7.190,9.220,1.790,10.170,0.980,3.060,-30.750,-26.750,11.000,-1.020,9.740,-0.290,26,0,0,0,1
11290,20.688,-6.000,-91.688,-1.073,0.035,1.413,5.830,10.190,1.470,8.220,-0.520,2.080,-30.750,-26.750,11.000,-0.930,9.760,-0.180,26,0,0,0,1
11300,20.312,-5.438,-91.062,-1.054,-0.468,1.026,4.170,11.040,1.620,6.760,0.430,1.650,-30.750,-26.750,11.000,-0.850,9.760,-0.080,26,0,0,0,1
11311,20.250,-4.938,-90.438,-1.041,-0.757,0.832,1.010,10.870,1.400,5.030,1.270,1.700,-30.750,-26.750,11.000,-0.770,9.770,0.010,26,0,0,0,1
11322,20.188,-4.500,-89.875,-0.996,-0.800,0.812,1.010,10.870,1.400,1.780,1.100,1.380,-30.750,-26.750,11.000,-0.700,9.780,0.100,26,0,0,0,1
11329,20.062,-4.125,-89.312,-0.922,-0.577,0.759,0.750,10.110,1.330,1.450,0.330,1.220,-34.375,-24.188,9.688,-0.700,9.780,0.100,26,0,0,0,1
11337,19.750,-3.688,-88.875,-0.855,-0.305,0.786,0.420,9.510,1.190,1.050,-0.260,1.000,-34.375,-24.188,9.688,-0.630,9.780,0.190,26,0,0,0,1
11347,19.250,-3.125,-88.375,-0.814,-0.127,0.980,-0.200,9.290,0.980,0.330,-0.490,0.710,-34.375,-24.188,9.688,-0.530,9.780,0.260,26,0,0,0,1
11358,18.562,-2.500,-87.938,-0.844,0.062,1.149,0.650,9.760,1.280,1.080,-0.020,0.930,-34.375,-24.188,9.688,-0.300,9.790,0.420,26,0,0,0,1
11369,17.688,-1.750,-87.500,-0.770,0.212,1.300,2.200,9.790,1.470,2.510,0.000,1.050,-34.375,-24.188,9.688,-0.300,9.790,0.420,26,0,0,0,1
11377,16.812,-0.938,-87.125,-0.641,0.164,1.441,3.070,9.370,1.390,3.240,-0.410,0.910,-34.375,-24.875,9.000,-0.170,9.790,0.480,26,0,0,0,1
11384,16.812,-0.938,-87.125,-0.641,0.164,1.441,2.560,9.230,1.100,2.580,-0.550,0.560,-34.375,-24.875,9.000,-0.020,9.790,0.530,26,0,0,0,1
11392,15.938,-0.125,-86.812,-0.567,-0.015,1.549,1.830,9.490,0.060,1.700,-0.290,-0.510,-34.375,-24.875,9.000,0.120,9.780,0.580,26,0,0,0,1
11402,15.125,0.688,-86.562,-0.501,-0.116,1.558,1.690,9.530,-0.150,1.420,-0.240,-0.780,-34.375,-24.875,9.000,0.260,9.780,0.620,26,0,0,0,1
11413,14.438,1.562,-86.312,-0.464,-0.230,1.498,1.280,9.430,-0.170,0.870,-0.330,-0.850,-34.375,-24.875,9.000,0.400,9.770,0.670,26,0,0,0,1
11422,13.875,2.375,-86.000,-0.530,-0.409,1.438,0.260,9.660,0.050,0.870,-0.330,-0.850,-34.375,-24.875,9.000,0.540,9.760,0.730,26,0,0,0,1
11430,13.312,3.125,-85.688,-0.614,-0.483,1.429,0.260,9.660,0.050,-0.270,-0.100,-0.670,-36.188,-23.750,7.875,0.540,9.760,0.730,26,0,0,0,1
11438,12.875,3.938,-85.312,-0.729,-0.529,1.384,-0.290,9.660,0.300,-0.970,-0.080,-0.490,-36.188,-23.750,7.875,0.670,9.750,0.790,26,0,0,0,1
11448,12.438,4.688,-84.812,-0.872,-0.553,1.323,-0.650,9.360,0.790,-1.460,-0.360,-0.070,-36.188,-23.750,7.875,0.930,9.710,0.970,26,0,0,0,1
11459,12.062,5.438,-84.250,-1.079,-0.625,1.286,-0.260,9.130,1.100,-1.730,-0.660,0.020,-36.188,-23.750,7.875,1.060,9.680,1.080,26,0,0,0,1
11470,11.812,6.188,-83.562,-1.272,-0.726,1.306,-0.260,9.130,1.100,-1.320,-0.550,0.010,-36.188,-23.750,7.875,1.060,9.680,1.080,26,0,0,0,1
11478,11.500,7.062,-82.875,-1.354,-0.867,1.397,-0.770,9.590,0.860,-1.980,-0.060,-0.330,-37.875,-20.875,10.375,1.200,9.650,1.200,26,0,0,0,1
11486,11.500,7.062,-82.875,-1.329,-0.920,1.480,-0.790,9.990,0.490,-2.140,0.370,-0.820,-37.875,-20.875,10.375,1.350,9.620,1.310,26,0,0,0,1
11494,11.250,7.938,-82.188,-1.213,-0.981,1.525,-1.060,10.190,-0.050,-2.570,0.600,-1.460,-37.875,-20.875,10.375,1.510,9.580,1.410,26,0,0,0,1
11504,10.938,8.812,-81.562,-1.182,-1.033,1.682,-2.190,9.580,0.360,-3.870,0.040,-1.130,-37.875,-20.875,10.375,1.680,9.540,1.500,26,0,0,0,1
11514,10.562,9.812,-81.000,-1.132,-0.964,1.784,-2.870,9.540,0.750,-4.730,0.040,-0.840,-37.875,-20.875,10.375,1.850,9.490,1.590,26,0,0,0,1
11523,10.125,10.875,-80.438,-1.132,-0.964,1.784,-2.950,9.500,0.890,-4.730,0.040,-0.840,-37.875,-20.875,10.375,2.030,9.440,1.670,26,0,0,0,1
11531,9.625,11.938,-79.875,-1.045,-0.761,1.750,-2.950,9.500,0.890,-4.990,0.050,-0.780,-39.375,-19.000,10.000,2.030,9.440,1.670,26,0,0,0,1
11539,9.062,12.938,-79.375,-1.059,-0.577,1.710,-2.190,9.570,0.730,-4.390,0.170,-1.020,-39.375,-19.000,10.000,2.350,9.330,1.850,26,0,0,0,1
11549,8.438,13.875,-78.688,-1.165,-0.441,1.653,-1.330,9.930,1.040,-3.690,0.590,-0.800,-39.375,-19.000,10.000,2.490,9.270,1.950,26,0,0,0,1
11560,7.875,14.750,-78.062,-1.189,-0.321,1.508,0.600,10.550,2.300,-2.790,1.020,-0.200,-39.375,-19.000,10.000,2.610,9.220,2.040,26,0,0,0,1
11571,7.438,15.438,-77.438,-1.091,-0.283,1.304,0.600,10.550,2.300,-2.010,1.330,0.260,-39.375,-19.000,10.000,2.610,9.220,2.040,26,0,0,0,1
11579,7.000,16.125,-76.938,-0.926,-0.261,1.167,1.040,10.330,2.740,-1.670,1.150,0.620,-41.188,-15.375,10.750,2.720,9.170,2.120,26,0,0,0,1
11586,7.000,16.125,-76.938,-0.754,-0.241,1.150,1.040,9.980,2.890,-1.790,0.850,0.710,-41.188,-15.375,10.750,2.830,9.130,2.180,26,0,0,0,1
11595,6.562,16.750,-76.500,-0.644,-0.300,1.181,0.900,9.850,2.460,-2.040,0.770,0.230,-41.188,-15.375,10.750,2.940,9.080,2.230,26,0,0,0,2
11605,6.125,17.438,-76.188,-0.532,-0.446,1.256,0.010,9.900,1.410,-3.040,0.870,-0.850,-41.188,-15.375,10.750,3.060,9.030,2.260,26,0,0,0,2
11616,5.688,18.188,-75.875,-0.457,-0.597,1.332,-0.390,10.020,1.130,-3.580,1.040,-1.150,-41.188,-15.375,10.750,3.190,8.980,2.280,26,0,0,0,2
11624,5.250,19.000,-75.688,-0.457,-0.597,1.332,-0.520,10.310,0.670,-3.580,1.040,-1.150,-40.875,-13.250,10.375,3.330,8.930,2.300,26,0,0,0,2
11632,4.875,19.812,-75.500,-0.427,-0.733,1.376,-0.520,10.310,0.670,-3.850,1.380,-1.620,-40.875,-13.250,10.375,3.470,8.870,2.300,26,0,0,0,2
11640,4.500,20.688,-75.375,-0.419,-0.865,1.392,-0.470,10.580,0.330,-3.940,1.700,-1.970,-40.875,-13.250,10.375,3.610,8.810,2.310,26,0,0,0,2
11650,4.188,21.562,-75.250,-0.422,-0.951,1.405,0.070,11.740,-1.550,-3.690,2.630,-2.930,-40.875,-13.250,10.375,3.750,8.760,2.300,26,0,0,0,2
11661,3.875,22.500,-75.250,-0.358,-1.030,1.403,0.340,11.430,-1.510,-3.680,2.980,-3.850,-40.875,-13.250,10.375,3.890,8.700,2.280,26,0,0,0,2
11672,3.562,23.375,-75.250,-0.205,-1.104,1.376,0.340,11.430,-1.510,-3.540,2.730,-3.800,-40.875,-13.250,10.375,4.030,8.650,2.240,26,0,0,0,2
11679,3.375,24.250,-75.438,-0.136,-1.230,1.340,0.220,10.880,-0.320,-3.810,2.230,-2.560,-41.875,-10.750,12.250,4.030,8.650,2.240,26,0,0,0,2
11687,3.188,25.125,-75.562,-0.166,-1.325,1.293,-0.620,11.340,1.350,-4.790,2.750,-0.840,-41.875,-10.750,12.250,4.170,8.590,2.200,26,0,0,0,2
11696,3.188,25.125,-75.562,-0.136,-1.361,1.274,-1.120,11.670,1.690,-5.420,3.130,-0.470,-41.875,-10.750,12.250,4.300,8.540,2.160,26,0,0,0,2
11706,3.062,26.000,-75.750,-0.047,-1.305,1.278,-1.560,11.940,1.750,-5.990,3.450,-0.350,-41.875,-10.750,12.250,4.430,8.480,2.110,26,0,0,0,2
11716,2.625,27.750,-76.250,0.050,-1.158,1.284,-2.460,12.350,1.940,-7.030,3.920,-0.110,-41.875,-10.750,12.250,4.560,8.430,2.050,26,0,0,0,2
11724,2.625,27.750,-76.250,0.050,-1.158,1.284,-2.740,12.020,2.390,-7.030,3.920,-0.110,-41.875,-8.875,14.250,4.680,8.370,2.000,26,0,0,0,2
11732,2.312,28.562,-76.562,0.136,-1.028,1.268,-2.740,12.020,2.390,-7.430,3.640,0.390,-41.875,-8.875,14.250,4.680,8.370,2.000,26,0,0,0,2
11740,2.000,29.312,-76.812,0.161,-0.986,1.180,-3.300,11.670,2.960,-8.110,3.350,1.020,-41.875,-8.875,14.250,4.900,8.280,1.880,26,0,0,0,2
11750,1.812,29.938,-77.125,0.111,-1.038,0.952,-5.560,14.360,-0.180,-8.580,3.890,0.730,-41.875,-8.875,14.250,4.970,8.250,1.810,26,0,0,0,2
11761,1.812,30.500,-77.562,0.163,-1.131,0.730,-7.390,13.810,0.210,-10.540,6.100,-1.990,-41.875,-8.875,14.250,5.040,8.220,1.720,26,0,0,0,2
11772,1.875,30.938,-78.125,0.418,-1.196,0.597,-7.390,13.810,0.210,-12.440,5.580,-1.510,-41.875,-8.875,14.250,5.040,8.220,1.720,26,0,0,0,2
11779,93.438,31.312,-78.875,0.790,-1.132,0.485,-9.460,13.170,-0.220,-14.570,4.950,-1.820,-41.875,-5.500,17.250,5.100,8.210,1.600,26,0,0,0,2
11787,93.438,31.312,-78.875,1.358,-1.092,0.350,-7.800,13.280,-2.570,-12.940,5.060,-4.020,-41.875,-5.500,17.250,5.140,8.220,1.440,26,0,0,0,2
11795,93.312,31.625,-80.000,1.664,-1.293,0.436,-7.160,13.600,-2.110,-12.360,5.380,-3.360,-41.875,-5.500,17.250,5.190,8.220,1.240,26,0,0,0,2
11805,93.188,32.000,-81.312,1.597,-1.086,0.389,-6.320,13.410,-2.470,-11.560,5.190,-3.530,-41.875,-5.500,17.250,5.240,8.210,1.060,26,0,0,0,2
11815,93.000,32.312,-82.562,1.732,-1.014,-0.039,-5.250,12.450,-3.320,-10.500,4.210,-4.190,-41.875,-5.500,17.250,5.240,8.230,0.870,26,0,0,0,2
11824,93.000,32.312,-83.875,1.732,-1.014,-0.039,-1.010,12.400,-0.720,-10.500,4.210,-4.190,-43.062,-2.250,19.250,5.200,8.280,0.700,26,0,0,0,2
11831,93.062,32.000,-85.062,1.672,-0.663,-0.625,-1.010,12.400,-0.720,-6.220,4.120,-1.430,-43.062,-2.250,19.250,5.200,8.280,0.700,26,0,0,0,2
11839,93.312,31.500,-85.875,1.284,-0.153,-0.949,2.100,12.770,1.280,-3.020,4.430,0.680,-43.062,-2.250,19.250,5.120,8.330,0.590,26,0,0,0,2
11849,93.500,30.938,-86.250,0.850,0.292,-0.982,4.200,13.140,3.790,-0.830,4.750,3.240,-43.062,-2.250,19.250,5.040,8.390,0.540,26,0,0,0,2
11860,93.625,30.375,-86.250,0.381,0.723,-1.041,6.220,12.520,3.050,1.260,4.080,2.500,-43.062,-2.250,19.250,4.850,8.500,0.550,26,0,0,0,2
11870,93.875,29.625,-86.250,0.343,0.731,-1.266,7.320,12.350,1.790,2.470,3.840,1.240,-43.062,-2.250,19.250,4.850,8.500,0.550,26,0,0,0,2
